ax,ay,az,gx,gy,gz
-0.37,-0.79,-0.52,20.97,13.79,27.92
-0.41,-0.93,-0.45,26.51,27.95,17.52
-0.47,-1.12,-0.34,21.21,35.63,-0.31
-0.53,-1.3,-0.22,8.21,39.92,-23.87
-0.52,-1.33,-0.15,-11.91,47.18,-38.79
-0.43,-1.22,-0.11,-32.54,50.96,-38.8
-0.24,-1.06,-0.17,-40.91,44.75,-25.92
-0.09,-0.88,-0.24,-49.75,16.3,-10.0
-0.04,-0.72,-0.26,-55.86,-20.32,5.09
-0.05,-0.55,-0.36,-44.9,-47.45,13.23
-0.14,-0.4,-0.45,-28.69,-53.92,13.99
-0.23,-0.34,-0.51,-17.01,-32.94,19.88
-0.31,-0.41,-0.5,-7.79,-14.05,19.84
-0.38,-0.51,-0.47,3.22,4.17,20.74
-0.36,-0.62,-0.5,14.15,22.91,23.41
-0.31,-0.76,-0.51,13.06,25.45,21.3
-0.33,-0.9,-0.47,13.32,28.03,15.51
-0.35,-0.98,-0.42,21.73,31.42,7.01
-0.39,-1.12,-0.35,24.66,34.96,-7.73
-0.47,-1.19,-0.26,19.66,43.68,-27.41
-0.52,-1.23,-0.04,-10.85,57.73,-36.76
-0.42,-1.21,0.01,-34.03,60.52,-30.44
-0.18,-1.08,-0.08,-45.9,39.7,-13.67
-0.02,-0.89,-0.15,-58.16,3.14,1.71
-0.03,-0.69,-0.22,-62.51,-44.07,8.44
-0.11,-0.52,-0.31,-55.04,-64.0,5.48
-0.22,-0.41,-0.39,-42.54,-64.0,9.11
-0.3,-0.42,-0.52,-31.77,-37.16,12.37
-0.3,-0.46,-0.69,-3.27,5.26,20.54
-0.29,-0.46,-0.74,20.84,29.2,21.64
-0.3,-0.56,-0.61,26.66,40.8,21.95
-0.31,-0.76,-0.48,20.84,45.19,19.08
-0.3,-0.95,-0.42,16.4,44.53,19.77
-0.29,-1.06,-0.41,25.62,39.43,10.02
-0.36,-1.12,-0.32,27.63,34.28,-11.11
-0.53,-1.22,-0.08,7.58,39.86,-23.84
-0.48,-1.25,-0.04,-5.05,44.78,-33.44
-0.37,-1.14,-0.02,-28.76,41.26,-33.47
-0.21,-1.01,-0.01,-44.12,26.92,-15.58
-0.08,-0.86,-0.09,-58.35,-10.71,-1.32
-0.03,-0.68,-0.21,-63.38,-50.43,8.29
-0.06,-0.49,-0.33,-59.2,-64.0,11.86
-0.14,-0.35,-0.42,-50.3,-64.0,17.12
-0.28,-0.35,-0.51,-39.27,-62.97,13.64
-0.35,-0.39,-0.7,-7.15,-18.04,14.35
-0.4,-0.43,-0.77,20.26,12.64,16.01
-0.39,-0.59,-0.69,30.15,39.5,15.86
-0.34,-0.84,-0.58,30.15,49.77,15.63
-0.28,-1.05,-0.45,25.79,46.87,16.54
-0.25,-1.14,-0.35,25.8,35.67,4.77
-0.36,-1.2,-0.19,11.95,25.09,-10.67
-0.44,-1.21,-0.14,8.91,27.25,-26.54
-0.47,-1.14,-0.01,-19.59,33.12,-38.11
-0.38,-1.1,0.03,-40.77,43.66,-27.3
-0.15,-0.96,-0.1,-52.39,20.73,-6.29
-0.01,-0.77,-0.17,-63.18,-17.66,8.37
0.01,-0.59,-0.28,-58.96,-63.01,16.18
-0.08,-0.42,-0.39,-48.64,-64.0,17.1
-0.22,-0.34,-0.47,-39.29,-64.0,19.4
-0.37,-0.36,-0.56,-15.35,-42.22,14.61
-0.44,-0.39,-0.61,11.62,-2.87,13.84
-0.46,-0.52,-0.61,21.53,30.72,15.24
-0.38,-0.75,-0.62,21.18,48.64,15.72
-0.29,-0.91,-0.62,20.24,47.94,19.47
-0.23,-0.97,-0.57,28.82,29.69,18.95
-0.25,-1.03,-0.47,43.35,22.52,-3.04
-0.43,-1.18,-0.27,41.81,36.01,-24.93
-0.61,-1.34,0.03,4.79,50.88,-40.87
-0.58,-1.38,0.13,-31.09,63.9,-45.41
-0.3,-1.17,0.0,-42.1,57.33,-27.12
-0.04,-0.93,-0.12,-53.77,27.92,-11.13
0.04,-0.73,-0.15,-64.0,-24.45,1.98
0.01,-0.55,-0.23,-64.0,-62.21,10.88
-0.08,-0.35,-0.35,-56.18,-64.0,16.04
-0.24,-0.27,-0.42,-53.48,-64.0,24.6
-0.36,-0.27,-0.49,-32.23,-38.93,23.43
-0.43,-0.3,-0.53,-2.75,-4.01,21.3
-0.43,-0.46,-0.59,10.8,26.78,25.39
-0.34,-0.69,-0.65,10.95,29.92,26.47
-0.26,-0.87,-0.65,20.73,29.05,27.12
-0.21,-0.95,-0.64,44.23,16.95,23.41
-0.22,-1.12,-0.56,64.0,13.18,-2.45
-0.43,-1.32,-0.25,41.26,26.18,-26.53
-0.68,-1.49,0.06,2.44,58.58,-37.41
-0.59,-1.42,0.09,-23.81,64.0,-47.23
-0.35,-1.22,0.05,-48.13,64.0,-34.11
-0.07,-1.02,-0.11,-59.77,33.67,-15.42
0.08,-0.81,-0.19,-64.0,-15.87,-4.63
0.07,-0.64,-0.28,-64.0,-61.88,6.14
-0.02,-0.47,-0.36,-64.0,-64.0,11.44
-0.2,-0.32,-0.45,-54.07,-64.0,14.44
-0.32,-0.28,-0.55,-43.29,-46.49,22.61
-0.4,-0.33,-0.63,-15.51,-4.56,19.58
-0.45,-0.43,-0.61,4.28,22.48,15.71
-0.45,-0.66,-0.58,4.44,39.4,15.73
-0.37,-0.85,-0.6,6.38,53.62,14.87
-0.27,-0.92,-0.62,18.53,56.61,16.8
-0.22,-0.93,-0.53,31.03,51.08,16.82
-0.2,-1.03,-0.4,40.8,32.96,2.47
-0.3,-1.22,-0.24,34.47,21.76,-24.54
-0.5,-1.32,0.03,-9.02,21.71,-43.3
-0.56,-1.33,0.11,-42.35,51.09,-40.46
-0.3,-1.1,-0.11,-38.89,51.85,-33.17
-0.04,-0.86,-0.19,-51.97,24.98,-15.85
0.03,-0.72,-0.17,-63.51,-24.0,-3.8
-0.02,-0.63,-0.21,-64.0,-62.94,4.03
-0.12,-0.48,-0.31,-64.0,-64.0,9.46
-0.2,-0.35,-0.41,-56.7,-64.0,13.67
-0.3,-0.31,-0.55,-41.14,-47.29,16.97
-0.35,-0.34,-0.7,-9.56,-11.94,13.45
-0.4,-0.43,-0.74,12.89,13.87,12.07
-0.39,-0.64,-0.68,21.51,38.35,9.41
-0.34,-0.86,-0.65,24.72,58.16,10.39
-0.26,-0.97,-0.61,24.35,54.43,13.73
-0.18,-1.03,-0.49,27.93,34.88,8.05
-0.24,-1.16,-0.31,28.17,21.26,-19.54
-0.43,-1.29,-0.06,-5.68,18.61,-31.43
-0.5,-1.37,-0.02,-27.72,37.63,-35.22
-0.38,-1.2,-0.09,-33.17,40.05,-41.0
-0.21,-0.95,-0.22,-32.6,29.03,-31.95
-0.09,-0.81,-0.21,-43.74,2.91,-19.64
-0.09,-0.69,-0.2,-55.35,-27.55,-7.65
-0.1,-0.54,-0.26,-57.13,-49.72,2.09
-0.12,-0.38,-0.31,-56.82,-62.2,10.82
-0.14,-0.28,-0.4,-52.56,-56.96,28.56
-0.18,-0.27,-0.56,-28.16,-42.09,28.54
-0.23,-0.29,-0.67,-1.18,-21.86,24.29
-0.29,-0.42,-0.71,14.95,-4.92,23.03
-0.32,-0.67,-0.69,23.5,8.88,22.19
-0.31,-0.87,-0.65,22.56,21.52,20.42
-0.29,-1.02,-0.64,29.48,19.58,16.82
-0.3,-1.09,-0.55,37.89,20.25,-6.74
-0.41,-1.22,-0.27,20.11,30.29,-23.73
-0.5,-1.39,-0.09,-1.71,49.55,-28.19
-0.44,-1.38,-0.07,-24.56,49.96,-42.02
-0.29,-1.17,-0.1,-34.69,38.27,-38.7
-0.11,-1.0,-0.19,-39.13,15.82,-26.36
-0.02,-0.82,-0.23,-48.25,-11.14,-15.13
-0.03,-0.68,-0.24,-54.38,-34.14,-3.65
-0.08,-0.49,-0.29,-53.92,-49.22,5.53
-0.13,-0.34,-0.4,-46.86,-52.53,14.85
-0.18,-0.27,-0.49,-40.66,-41.29,26.01
-0.22,-0.31,-0.62,-14.33,-19.67,23.44
-0.28,-0.38,-0.69,7.56,-1.26,22.11
-0.31,-0.56,-0.68,17.77,16.71,21.66
-0.3,-0.81,-0.65,21.8,23.37,20.63
-0.26,-0.99,-0.65,24.01,19.74,19.62
-0.26,-1.04,-0.59,32.53,16.53,0.03
-0.37,-1.14,-0.31,25.62,33.99,-21.3
-0.49,-1.34,-0.1,6.03,53.52,-27.73
-0.46,-1.43,-0.04,-24.63,61.83,-39.64
-0.31,-1.28,-0.08,-37.17,55.27,-39.88
-0.11,-1.01,-0.26,-34.21,29.08,-31.85
-0.0,-0.86,-0.3,-39.16,1.04,-29.13
-0.04,-0.78,-0.29,-49.51,-27.62,-24.03
-0.12,-0.69,-0.29,-61.53,-40.6,-9.6
-0.17,-0.54,-0.32,-64.0,-39.39,5.27
-0.2,-0.37,-0.39,-62.95,-35.55,12.5
-0.18,-0.25,-0.54,-45.62,-23.52,25.05
-0.19,-0.27,-0.67,-20.34,-8.92,24.21
-0.28,-0.41,-0.71,4.96,9.82,19.17
-0.36,-0.62,-0.67,14.88,33.3,15.14
-0.37,-0.82,-0.64,16.0,53.81,13.29
-0.29,-0.89,-0.65,22.0,62.31,17.33
-0.21,-0.91,-0.58,39.1,49.44,11.98
-0.23,-1.03,-0.36,49.27,47.19,-17.15
-0.34,-1.29,-0.05,20.66,42.54,-27.96
-0.4,-1.46,0.09,-19.1,43.71,-36.31
-0.29,-1.32,0.03,-40.29,32.59,-39.52
-0.13,-1.05,-0.12,-41.85,14.07,-34.27
0.01,-0.84,-0.23,-50.08,-8.93,-24.67
0.04,-0.74,-0.3,-57.57,-37.04,-12.77
-0.01,-0.64,-0.37,-59.98,-52.42,-0.42
-0.06,-0.51,-0.45,-59.68,-54.28,9.49
-0.1,-0.39,-0.55,-49.63,-39.48,18.74
-0.16,-0.31,-0.67,-36.25,-17.77,22.23
-0.24,-0.33,-0.73,-16.08,7.86,17.71
-0.3,-0.47,-0.68,-3.32,29.62,19.07
-0.25,-0.71,-0.68,3.98,41.25,20.6
-0.18,-0.83,-0.64,3.44,32.88,20.88
-0.12,-0.89,-0.6,17.54,27.37,22.03
-0.13,-0.95,-0.53,42.65,24.69,7.8
-0.28,-1.13,-0.26,32.05,22.1,-18.18
-0.38,-1.37,-0.04,10.19,30.49,-22.42
-0.37,-1.4,0.01,-16.92,33.8,-36.99
-0.28,-1.17,-0.0,-33.74,28.1,-36.49
-0.08,-0.94,-0.13,-35.6,3.24,-28.59
0.05,-0.8,-0.25,-44.15,-35.03,-19.7
0.04,-0.71,-0.3,-49.55,-64.0,-11.82
-0.04,-0.59,-0.37,-53.17,-64.0,5.1
-0.11,-0.44,-0.47,-47.05,-62.28,17.08
-0.17,-0.31,-0.55,-42.87,-43.97,24.12
-0.2,-0.27,-0.65,-18.76,-21.74,25.41
-0.19,-0.29,-0.73,6.87,-2.03,27.52
-0.2,-0.45,-0.71,14.98,6.17,27.8
-0.22,-0.73,-0.6,14.76,4.32,26.24
-0.21,-0.92,-0.51,14.06,5.09,28.25
-0.15,-1.04,-0.43,19.81,-2.27,28.68
-0.13,-1.13,-0.34,21.01,-16.38,16.95
-0.19,-1.22,-0.22,12.64,-29.9,-1.02
-0.36,-1.27,-0.11,-10.47,-23.2,-19.25
-0.48,-1.23,-0.06,-31.14,-3.77,-30.04
-0.39,-1.1,-0.2,-34.64,-0.55,-36.32
-0.22,-1.01,-0.28,-41.18,-19.95,-36.98
-0.13,-0.92,-0.31,-46.23,-52.25,-29.9
-0.12,-0.77,-0.37,-45.19,-56.31,-15.66
-0.12,-0.55,-0.45,-39.63,-51.74,-2.38
-0.15,-0.4,-0.48,-37.04,-49.99,2.07
-0.15,-0.34,-0.56,-36.21,-34.4,19.77
-0.11,-0.36,-0.7,-16.48,-17.46,28.04
-0.14,-0.35,-0.78,11.54,-1.12,27.19
-0.25,-0.43,-0.68,15.85,9.58,27.17
-0.31,-0.67,-0.55,11.17,17.47,27.85
-0.27,-0.86,-0.51,16.91,13.61,30.27
-0.19,-1.01,-0.43,28.29,-14.61,25.59
-0.18,-1.18,-0.26,32.33,-38.24,-0.35
-0.37,-1.35,-0.02,3.08,-37.83,-23.7
-0.61,-1.39,0.1,-29.04,-1.36,-29.71
-0.54,-1.23,-0.02,-41.18,27.92,-33.13
-0.3,-1.01,-0.24,-41.34,19.05,-25.81
-0.09,-0.88,-0.34,-43.99,-13.66,-20.41
-0.05,-0.8,-0.4,-41.32,-49.37,-14.54
-0.13,-0.65,-0.43,-40.95,-64.0,-2.6
-0.19,-0.51,-0.47,-38.59,-58.15,7.07
-0.23,-0.38,-0.47,-34.28,-47.25,15.94
-0.24,-0.34,-0.52,-35.54,-34.23,26.21
-0.26,-0.37,-0.58,-14.92,-22.62,23.4
-0.32,-0.41,-0.61,8.6,-10.04,20.91
-0.36,-0.56,-0.6,18.13,4.26,20.04
-0.36,-0.81,-0.53,25.9,19.67,13.05
-0.36,-1.02,-0.4,26.14,20.39,7.13
-0.29,-1.23,-0.27,21.54,6.17,3.42
-0.25,-1.35,-0.19,11.74,-14.07,-8.29
-0.38,-1.23,-0.1,-4.27,-21.41,-28.74
-0.57,-1.12,0.02,-36.77,-8.39,-37.64
-0.51,-1.05,-0.07,-48.53,8.7,-35.57
-0.32,-0.92,-0.22,-54.44,10.66,-22.39
-0.19,-0.74,-0.3,-52.6,-5.5,-8.94
-0.16,-0.6,-0.4,-44.98,-30.44,-1.86
-0.17,-0.5,-0.45,-42.03,-53.75,7.99
-0.15,-0.42,-0.49,-37.32,-51.8,23.36
-0.13,-0.34,-0.59,-29.51,-37.53,31.87
-0.22,-0.31,-0.63,-8.08,-20.79,23.02
-0.34,-0.36,-0.59,16.85,6.47,25.74
-0.35,-0.56,-0.58,25.26,23.68,28.73
-0.34,-0.83,-0.49,18.81,25.33,26.08
-0.29,-1.05,-0.36,19.14,15.58,25.64
-0.21,-1.22,-0.29,18.74,-11.12,17.59
-0.26,-1.27,-0.22,13.46,-33.64,-5.38
-0.47,-1.22,-0.12,4.79,-29.31,-33.72
-0.67,-1.16,0.05,-30.14,1.73,-38.89
-0.62,-1.15,-0.03,-48.51,37.55,-37.67
-0.38,-1.03,-0.23,-54.92,40.82,-22.83
-0.17,-0.82,-0.29,-58.28,12.38,-7.96
-0.08,-0.64,-0.36,-55.0,-26.32,-3.67
-0.09,-0.52,-0.42,-48.0,-62.78,-0.95
-0.14,-0.41,-0.48,-37.28,-59.81,9.88
-0.17,-0.35,-0.6,-23.79,-43.16,20.93
-0.31,-0.36,-0.66,-9.15,-13.57,14.25
-0.4,-0.42,-0.58,10.7,15.47,15.74
-0.42,-0.58,-0.54,18.03,34.89,21.87
-0.39,-0.77,-0.48,15.62,36.79,16.72
-0.35,-0.96,-0.33,8.5,23.92,12.55
-0.29,-1.09,-0.27,9.96,11.83,5.14
-0.29,-1.19,-0.21,5.43,-2.91,-4.79
-0.39,-1.21,-0.12,-1.9,-5.23,-19.98
-0.48,-1.14,-0.08,-14.16,5.01,-28.32
-0.46,-1.07,-0.08,-31.89,12.65,-30.8
-0.36,-1.01,-0.12,-41.98,3.69,-27.56
-0.22,-0.89,-0.21,-51.13,-13.08,-15.88
-0.18,-0.73,-0.32,-48.54,-27.62,-6.14
-0.16,-0.54,-0.41,-39.55,-39.46,3.39
-0.12,-0.41,-0.49,-27.33,-35.79,20.83
-0.1,-0.32,-0.53,-22.51,-41.89,29.95
-0.26,-0.35,-0.46,-17.99,-41.09,13.69
-0.4,-0.45,-0.44,-0.58,-21.08,17.73
-0.4,-0.58,-0.54,14.05,3.48,21.01
-0.39,-0.75,-0.55,15.74,18.85,16.73
-0.4,-0.9,-0.48,15.52,26.14,11.9
-0.37,-1.05,-0.38,17.1,27.62,7.01
-0.33,-1.16,-0.27,9.98,15.74,1.41
-0.34,-1.23,-0.18,0.61,7.57,-7.37
-0.41,-1.17,-0.12,-9.72,3.66,-20.3
-0.47,-1.07,-0.09,-27.8,3.8,-27.71
-0.45,-1.02,-0.09,-43.74,-4.0,-28.06
-0.39,-0.94,-0.13,-54.85,-18.17,-24.53
-0.33,-0.81,-0.2,-58.3,-34.17,-18.34
-0.2,-0.65,-0.39,-45.06,-21.74,-0.51
-0.07,-0.44,-0.56,-21.73,-24.31,16.67
-0.09,-0.31,-0.55,-14.95,-27.41,26.55
-0.19,-0.36,-0.49,-12.95,-35.74,20.75
-0.38,-0.48,-0.4,-6.11,-27.85,16.55
-0.44,-0.59,-0.41,-0.17,-11.17,20.77
-0.43,-0.72,-0.45,1.32,3.45,17.29
-0.42,-0.85,-0.45,7.04,13.94,11.75
-0.42,-0.94,-0.41,14.59,20.33,4.58
-0.42,-1.07,-0.3,12.45,27.52,-3.42
-0.42,-1.17,-0.2,2.87,27.8,-14.68
-0.42,-1.19,-0.12,-10.39,22.49,-22.44
-0.41,-1.14,-0.1,-30.19,15.45,-29.04
-0.36,-1.07,-0.15,-40.31,3.97,-32.56
-0.33,-0.97,-0.18,-49.28,-13.6,-29.94
-0.3,-0.85,-0.21,-52.6,-29.71,-20.26
-0.22,-0.72,-0.35,-45.87,-18.88,-6.36
-0.16,-0.52,-0.43,-33.58,-24.54,7.05
-0.19,-0.38,-0.45,-25.18,-16.78,18.9
-0.18,-0.34,-0.46,-20.61,-27.97,24.25
-0.29,-0.43,-0.37,-22.68,-24.06,20.6
-0.36,-0.54,-0.39,-8.08,-14.23,24.8
-0.36,-0.6,-0.45,3.39,-3.7,23.92
-0.39,-0.72,-0.46,7.19,6.07,18.37
-0.41,-0.85,-0.43,14.7,12.18,10.28
-0.42,-1.02,-0.34,11.82,18.94,5.23
-0.43,-1.16,-0.27,4.37,21.05,-3.5
-0.45,-1.2,-0.2,-3.61,20.31,-15.58
-0.48,-1.12,-0.15,-18.53,23.89,-25.58
-0.46,-1.06,-0.15,-30.5,24.47,-32.75
-0.39,-1.0,-0.19,-39.45,15.54,-35.43
-0.31,-0.92,-0.23,-45.4,0.77,-29.75
-0.24,-0.82,-0.31,-43.72,-7.78,-17.21
-0.16,-0.68,-0.43,-31.97,-0.73,-2.09
-0.12,-0.49,-0.46,-21.71,0.57,10.04
-0.16,-0.39,-0.39,-19.85,-10.11,15.7
-0.24,-0.39,-0.32,-28.01,-27.01,16.77
-0.31,-0.51,-0.3,-24.73,-25.49,19.67
-0.3,-0.57,-0.4,-7.87,-20.26,23.44
-0.3,-0.6,-0.45,0.65,-9.11,21.89
-0.34,-0.7,-0.46,4.37,8.17,20.21
-0.39,-0.81,-0.47,3.13,23.35,18.46
-0.4,-0.93,-0.44,5.7,27.94,15.79
-0.39,-1.04,-0.35,5.65,23.11,5.14
-0.43,-1.16,-0.28,2.92,19.47,-10.08
-0.52,-1.22,-0.18,-10.1,23.69,-24.3
-0.56,-1.17,-0.15,-24.47,43.27,-31.73
-0.44,-1.01,-0.25,-23.7,49.21,-34.29
-0.29,-0.89,-0.29,-29.35,35.92,-27.37
-0.18,-0.82,-0.28,-33.93,10.04,-16.42
-0.13,-0.73,-0.27,-41.82,-15.56,-5.92
-0.14,-0.57,-0.27,-43.97,-29.28,6.52
-0.16,-0.48,-0.28,-41.37,-41.9,15.22
-0.14,-0.38,-0.39,-29.87,-43.27,24.22
-0.2,-0.39,-0.45,-21.71,-39.58,23.79
-0.31,-0.46,-0.49,0.53,-25.02,21.8
-0.37,-0.53,-0.53,17.17,-10.95,19.7
-0.44,-0.68,-0.5,24.46,0.28,15.82
-0.47,-0.84,-0.43,23.85,12.31,8.39
-0.46,-1.01,-0.36,20.89,25.45,-0.63
-0.46,-1.13,-0.27,10.35,28.79,-10.61
-0.5,-1.2,-0.15,-4.06,29.51,-19.65
-0.49,-1.17,-0.12,-13.9,36.07,-22.1
-0.39,-1.05,-0.15,-22.35,32.79,-24.07
-0.28,-0.96,-0.19,-33.07,12.21,-19.25
-0.2,-0.88,-0.2,-42.42,-11.89,-11.33
-0.18,-0.78,-0.24,-44.94,-34.78,-1.74
-0.21,-0.63,-0.29,-45.75,-44.25,6.63
-0.23,-0.48,-0.36,-34.42,-48.01,13.18
-0.25,-0.39,-0.38,-33.06,-42.58,21.13
-0.25,-0.42,-0.45,-19.27,-31.5,24.18
-0.31,-0.44,-0.52,2.94,-17.62,19.69
-0.36,-0.5,-0.55,19.33,-6.3,20.78
-0.4,-0.65,-0.51,25.19,3.18,16.18
-0.43,-0.83,-0.45,21.03,17.47,13.83
-0.42,-0.96,-0.42,18.87,22.15,8.22
-0.41,-1.09,-0.36,17.12,20.05,-5.34
-0.48,-1.2,-0.19,4.67,19.64,-19.96
-0.55,-1.29,-0.07,-12.81,33.89,-22.28
-0.5,-1.22,-0.09,-21.65,48.23,-23.6
-0.37,-1.03,-0.19,-29.47,42.91,-22.44
-0.25,-0.9,-0.23,-35.68,22.29,-16.97
-0.18,-0.82,-0.25,-41.0,-5.68,-8.72
-0.2,-0.72,-0.26,-45.55,-31.6,-4.89
-0.26,-0.61,-0.23,-50.96,-42.56,0.19
-0.25,-0.51,-0.34,-41.26,-39.02,7.74
-0.26,-0.4,-0.39,-38.26,-36.31,14.4
-0.27,-0.41,-0.45,-28.29,-17.29,21.37
-0.26,-0.44,-0.55,5.01,-5.68,16.6
-0.34,-0.49,-0.53,26.64,3.51,12.39
-0.38,-0.68,-0.5,29.73,15.78,7.4
-0.4,-0.91,-0.47,25.32,25.41,3.39
-0.38,-1.06,-0.37,19.51,24.24,-3.75
-0.38,-1.2,-0.24,10.16,20.33,-11.93
-0.44,-1.28,-0.14,-0.5,18.34,-22.79
-0.5,-1.21,-0.08,-18.39,25.23,-25.27
-0.46,-1.06,-0.11,-24.58,31.56,-25.85
-0.35,-0.91,-0.16,-34.64,20.61,-22.93
-0.26,-0.84,-0.18,-44.59,1.78,-11.8
-0.21,-0.74,-0.22,-49.74,-26.93,-0.28
-0.2,-0.6,-0.26,-50.17,-44.04,6.04
-0.21,-0.46,-0.35,-40.77,-53.83,10.74
-0.21,-0.39,-0.44,-33.6,-42.83,19.52
-0.23,-0.41,-0.5,-19.92,-30.17,20.16
-0.31,-0.47,-0.55,5.54,-10.58,17.42
-0.38,-0.55,-0.52,21.91,7.06,16.07
-0.4,-0.73,-0.5,28.24,25.2,12.39
-0.41,-0.9,-0.43,19.83,33.29,11.96
-0.38,-1.04,-0.33,13.04,29.6,5.88
-0.37,-1.11,-0.25,7.3,17.31,-7.47
-0.45,-1.18,-0.14,-3.72,13.48,-22.55
-0.51,-1.19,-0.06,-17.03,27.26,-21.45
-0.44,-1.09,-0.11,-25.19,37.13,-21.88
-0.32,-0.95,-0.18,-33.35,26.32,-16.28
-0.22,-0.85,-0.19,-44.04,3.52,-5.88
-0.18,-0.75,-0.25,-46.53,-23.41,-0.68
-0.21,-0.63,-0.25,-47.81,-46.61,-0.35
-0.24,-0.53,-0.32,-41.74,-49.24,4.79
-0.25,-0.46,-0.41,-31.45,-41.43,12.13
-0.27,-0.47,-0.5,-25.46,-17.04,18.25
-0.31,-0.51,-0.54,-1.1,0.84,15.62
-0.35,-0.53,-0.55,18.16,15.96,14.73
-0.36,-0.66,-0.52,27.46,26.47,12.41
-0.36,-0.83,-0.47,21.71,29.75,13.38
-0.36,-0.96,-0.39,18.51,28.09,7.03
-0.4,-1.06,-0.26,15.22,19.89,-12.95
-0.5,-1.21,-0.13,2.17,21.24,-24.99
-0.56,-1.26,-0.06,-10.44,41.46,-23.56
-0.45,-1.13,-0.11,-19.95,52.4,-19.3
-0.29,-0.95,-0.18,-27.91,36.83,-14.72
-0.18,-0.84,-0.17,-41.77,9.34,-5.41
-0.13,-0.74,-0.22,-44.04,-19.22,3.29
-0.19,-0.59,-0.23,-47.88,-42.04,6.03
-0.24,-0.48,-0.28,-41.03,-43.82,9.05
-0.26,-0.43,-0.41,-34.44,-36.88,16.13
-0.32,-0.46,-0.5,-20.54,-15.24,14.33
-0.35,-0.49,-0.55,3.36,0.32,12.21
-0.36,-0.56,-0.54,20.61,10.7,11.39
-0.34,-0.73,-0.51,27.12,22.18,7.79
-0.33,-0.92,-0.49,19.76,31.9,9.61
-0.32,-1.02,-0.44,15.54,27.78,5.52
-0.36,-1.08,-0.34,14.79,26.7,-11.46
-0.45,-1.16,-0.16,6.71,29.86,-18.0
-0.5,-1.24,-0.11,0.7,41.53,-21.78
-0.47,-1.17,-0.06,-15.54,45.39,-25.77
-0.37,-1.02,-0.09,-24.01,42.88,-22.52
-0.24,-0.89,-0.14,-36.36,22.47,-11.28
-0.13,-0.76,-0.15,-46.06,-1.03,3.14
-0.08,-0.6,-0.19,-52.21,-29.38,16.11
-0.09,-0.44,-0.26,-47.16,-54.8,19.73
-0.18,-0.34,-0.33,-48.01,-64.0,22.02
-0.3,-0.4,-0.42,-33.72,-56.8,14.93
-0.38,-0.47,-0.57,-4.46,-33.75,11.36
-0.41,-0.56,-0.64,16.32,-12.36,7.36
-0.44,-0.75,-0.61,25.29,6.11,1.06
-0.44,-0.92,-0.58,28.33,29.98,-0.43
-0.39,-1.06,-0.51,30.06,50.38,-1.7
-0.39,-1.14,-0.32,22.69,59.89,-6.59
-0.37,-1.21,-0.16,12.37,55.22,-3.93
-0.33,-1.19,-0.13,6.9,34.1,-17.06
-0.41,-1.1,-0.04,-20.31,24.31,-28.86
-0.45,-1.04,0.07,-39.51,29.38,-24.32
-0.31,-0.93,-0.07,-43.44,25.72,-12.95
-0.17,-0.77,-0.14,-55.66,4.13,2.03
-0.1,-0.63,-0.19,-60.93,-22.86,12.15
-0.1,-0.5,-0.28,-54.58,-49.62,17.0
-0.16,-0.38,-0.37,-47.44,-58.29,21.81
-0.27,-0.39,-0.45,-39.09,-45.49,18.75
-0.37,-0.46,-0.53,-9.88,-20.68,10.76
-0.41,-0.55,-0.6,10.72,10.94,11.56
-0.39,-0.72,-0.6,17.57,26.34,9.65
-0.38,-0.9,-0.55,15.31,36.24,8.96
-0.33,-0.99,-0.53,20.31,37.53,5.05
-0.29,-1.05,-0.43,23.46,30.92,-0.94
-0.32,-1.15,-0.3,26.28,26.55,-17.77
-0.49,-1.24,-0.07,3.11,20.41,-29.32
-0.58,-1.26,0.09,-27.16,43.88,-32.88
-0.46,-1.12,0.02,-34.69,46.96,-28.66
-0.26,-0.92,-0.1,-45.73,32.04,-19.19
-0.12,-0.77,-0.12,-58.21,-3.43,-5.62
-0.06,-0.64,-0.19,-60.72,-33.97,8.08
-0.07,-0.46,-0.31,-51.32,-57.62,14.85
-0.16,-0.32,-0.37,-45.74,-62.02,20.47
-0.26,-0.32,-0.44,-36.48,-46.2,21.51
-0.33,-0.39,-0.51,-13.25,-24.46,16.78
-0.39,-0.49,-0.56,4.01,-5.63,15.37
-0.39,-0.67,-0.58,12.5,4.14,11.59
-0.36,-0.87,-0.58,19.31,24.81,11.19
-0.31,-0.96,-0.63,28.14,39.05,15.07
-0.26,-1.01,-0.56,34.22,32.62,10.72
-0.27,-1.12,-0.37,35.24,19.17,-7.37
-0.38,-1.29,-0.17,25.64,15.58,-21.86
-0.59,-1.33,0.07,-11.48,23.98,-33.37
-0.64,-1.23,0.11,-33.86,48.7,-37.87
-0.44,-1.01,-0.02,-41.88,45.51,-29.3
-0.19,-0.86,-0.12,-54.22,26.9,-15.89
-0.04,-0.73,-0.15,-62.76,-14.81,-2.58
-0.03,-0.55,-0.22,-62.07,-49.49,7.09
-0.06,-0.38,-0.33,-50.74,-64.0,18.79
-0.13,-0.26,-0.42,-44.53,-64.0,28.35
-0.24,-0.27,-0.46,-26.49,-50.19,19.16
-0.38,-0.33,-0.48,1.6,-31.65,13.53
-0.45,-0.5,-0.53,18.36,-2.49,10.49
-0.43,-0.76,-0.58,21.59,16.48,9.73
-0.34,-0.98,-0.58,24.75,32.67,12.46
-0.28,-1.04,-0.56,35.04,39.16,15.92
-0.22,-1.08,-0.45,39.59,22.34,14.27
-0.23,-1.16,-0.36,46.07,-2.48,-0.33
-0.42,-1.21,-0.19,34.73,-7.69,-34.36
-0.71,-1.23,0.15,-9.42,12.1,-38.85
-0.71,-1.22,0.15,-31.45,52.21,-34.76
-0.43,-1.06,0.01,-47.01,53.22,-25.22
-0.19,-0.88,-0.07,-61.02,31.21,-10.98
-0.07,-0.72,-0.17,-61.49,-15.16,-4.26
-0.04,-0.56,-0.29,-52.77,-51.36,0.5
-0.04,-0.41,-0.4,-40.99,-61.57,15.35
-0.08,-0.32,-0.48,-34.43,-58.08,27.46
-0.19,-0.33,-0.54,-15.75,-40.42,20.27
-0.33,-0.37,-0.57,7.45,-21.3,12.95
-0.45,-0.56,-0.58,19.41,10.3,10.43
-0.45,-0.82,-0.58,20.93,31.99,11.48
-0.39,-1.02,-0.53,19.86,44.72,17.0
-0.31,-1.07,-0.47,26.43,38.77,17.88
-0.24,-1.09,-0.38,35.59,6.88,6.84
-0.33,-1.17,-0.28,44.0,0.47,-30.29
-0.64,-1.25,0.12,-2.5,6.13,-42.18
-0.73,-1.29,0.21,-35.2,55.87,-36.87
-0.46,-1.15,0.03,-46.62,63.68,-27.12
-0.23,-0.92,-0.07,-62.87,37.82,-15.41
-0.08,-0.76,-0.14,-64.0,-1.24,-3.41
-0.02,-0.61,-0.24,-64.0,-50.9,0.29
-0.04,-0.44,-0.36,-55.49,-64.0,8.94
-0.08,-0.33,-0.49,-40.79,-63.5,22.85
-0.18,-0.31,-0.57,-28.46,-41.78,23.01
-0.29,-0.35,-0.61,-0.54,-18.48,14.94
-0.42,-0.48,-0.59,17.41,7.68,10.49
-0.47,-0.72,-0.55,19.38,35.96,8.43
-0.41,-0.98,-0.52,15.74,54.74,13.89
-0.28,-1.06,-0.5,24.3,49.24,20.12
-0.18,-1.09,-0.4,35.06,17.78,14.47
-0.22,-1.18,-0.3,46.61,-1.44,-17.96
-0.49,-1.26,0.03,14.73,-7.81,-38.52
-0.74,-1.3,0.25,-29.33,33.46,-40.11
-0.58,-1.21,0.12,-43.15,52.22,-35.39
-0.28,-0.96,-0.03,-60.66,42.67,-20.93
-0.1,-0.78,-0.11,-64.0,7.73,-4.53
-0.03,-0.62,-0.22,-64.0,-41.63,2.29
-0.05,-0.44,-0.38,-61.42,-64.0,10.16
-0.08,-0.29,-0.51,-42.64,-64.0,19.1
-0.16,-0.25,-0.6,-29.28,-47.37,19.93
-0.29,-0.3,-0.66,4.53,-15.12,14.1
-0.4,-0.43,-0.61,22.36,11.1,12.56
-0.45,-0.72,-0.52,15.54,38.55,15.01
-0.36,-0.98,-0.52,13.38,54.95,19.9
-0.22,-1.07,-0.53,23.57,36.94,25.94
-0.12,-1.1,-0.46,40.08,-0.26,11.96
-0.24,-1.2,-0.3,48.9,-6.63,-21.99
-0.6,-1.29,0.12,5.66,3.13,-33.89
-0.76,-1.31,0.12,-18.26,48.87,-40.05
-0.58,-1.17,0.06,-37.91,59.27,-39.1
-0.32,-0.99,-0.01,-55.31,52.41,-23.83
-0.11,-0.86,-0.09,-64.0,20.37,-5.5
0.01,-0.7,-0.16,-64.0,-26.37,3.21
-0.03,-0.5,-0.25,-64.0,-64.0,7.49
-0.09,-0.36,-0.33,-52.56,-64.0,12.23
-0.18,-0.29,-0.46,-42.65,-64.0,21.24
-0.27,-0.31,-0.56,-19.81,-39.91,18.33
-0.37,-0.37,-0.61,8.85,-6.57,14.86
-0.43,-0.54,-0.58,19.62,20.32,14.17
-0.4,-0.81,-0.57,19.82,45.62,15.71
-0.3,-0.99,-0.62,23.15,53.26,21.98
-0.19,-1.05,-0.57,29.84,26.85,22.95
-0.17,-1.11,-0.49,48.35,5.47,-3.77
-0.37,-1.23,-0.23,45.41,13.59,-26.77
-0.68,-1.35,0.13,7.29,34.12,-33.71
-0.71,-1.37,0.13,-15.43,60.96,-46.05
-0.51,-1.19,0.12,-39.98,60.51,-42.88
-0.23,-0.99,0.0,-55.77,48.54,-22.74
-0.03,-0.82,-0.1,-64.0,9.99,-8.06
0.04,-0.62,-0.15,-64.0,-31.86,3.9
0.05,-0.42,-0.29,-64.0,-64.0,20.17
-0.02,-0.28,-0.4,-56.61,-64.0,21.81
-0.19,-0.24,-0.51,-45.62,-64.0,19.07
-0.33,-0.29,-0.64,-5.29,-33.5,13.03
-0.45,-0.38,-0.68,25.12,7.68,11.44
-0.5,-0.61,-0.59,24.21,39.8,12.28
-0.43,-0.88,-0.54,17.58,64.0,22.1
-0.25,-0.98,-0.54,22.63,51.76,28.91
-0.15,-1.02,-0.5,38.27,24.47,12.03
-0.22,-1.14,-0.37,49.85,24.13,-10.16
-0.44,-1.32,-0.02,21.45,22.66,-16.76
-0.55,-1.4,0.07,7.53,36.8,-29.33
-0.51,-1.28,0.09,-18.15,36.8,-42.88
-0.4,-1.13,0.12,-42.36,33.99,-35.87
-0.18,-1.0,-0.03,-55.05,19.87,-20.66
-0.06,-0.83,-0.1,-64.0,-9.35,-10.72
-0.02,-0.64,-0.23,-64.0,-36.75,0.6
-0.02,-0.46,-0.37,-58.94,-54.21,10.46
-0.08,-0.3,-0.52,-40.93,-55.96,16.17
-0.18,-0.26,-0.65,-23.94,-34.59,19.26
-0.3,-0.32,-0.69,8.54,-2.29,11.42
-0.38,-0.43,-0.61,24.07,22.29,11.41
-0.4,-0.68,-0.49,15.09,36.3,13.17
-0.34,-0.93,-0.45,5.48,38.79,18.68
-0.22,-1.01,-0.46,13.36,22.75,22.12
-0.18,-1.05,-0.42,29.66,0.46,1.71
-0.3,-1.16,-0.21,27.16,5.48,-14.87
-0.49,-1.32,0.02,8.88,16.64,-21.13
-0.55,-1.33,0.06,-11.42,32.34,-29.53
-0.44,-1.18,0.06,-31.08,34.9,-32.17
-0.29,-1.03,-0.04,-42.44,26.32,-21.36
-0.1,-0.88,-0.17,-50.53,5.64,-13.07
-0.07,-0.73,-0.22,-56.34,-20.88,-2.2
-0.09,-0.57,-0.3,-55.89,-42.81,6.55
-0.1,-0.43,-0.38,-49.26,-48.44,14.34
-0.15,-0.33,-0.48,-44.71,-41.17,23.46
-0.22,-0.34,-0.59,-27.95,-19.56,23.1
-0.3,-0.38,-0.6,2.12,0.31,17.79
-0.36,-0.51,-0.56,10.26,19.52,16.47
-0.33,-0.77,-0.55,11.75,25.88,18.82
-0.27,-0.94,-0.52,9.96,25.05,20.94
-0.23,-1.03,-0.5,24.22,14.19,13.19
-0.26,-1.12,-0.38,37.58,19.26,-7.83
-0.4,-1.29,-0.12,23.79,25.15,-14.29
-0.48,-1.39,0.05,2.89,34.51,-22.49
-0.43,-1.3,0.1,-25.79,29.52,-30.86
-0.31,-1.13,0.07,-44.85,19.01,-24.54
-0.17,-0.99,-0.05,-57.57,1.15,-19.12
-0.1,-0.86,-0.18,-63.23,-22.75,-17.92
-0.1,-0.73,-0.29,-60.51,-40.39,-14.71
-0.14,-0.57,-0.39,-55.72,-49.46,-5.45
-0.16,-0.46,-0.49,-44.03,-40.28,4.61
-0.19,-0.36,-0.59,-33.12,-23.45,13.38
-0.23,-0.36,-0.61,-24.39,-2.63,22.01
-0.26,-0.42,-0.6,0.85,14.74,18.42
-0.29,-0.51,-0.52,6.98,18.68,21.61
-0.26,-0.71,-0.46,5.84,11.35,22.26
-0.24,-0.88,-0.41,7.79,4.09,20.92
-0.23,-1.0,-0.37,19.92,-3.36,14.76
-0.27,-1.11,-0.31,29.9,-7.89,4.21
-0.39,-1.22,-0.15,20.46,-6.36,-14.3
-0.55,-1.27,0.06,-4.07,10.78,-25.24
-0.55,-1.2,0.07,-25.88,34.06,-28.8
-0.36,-1.09,-0.04,-39.28,27.48,-24.98
-0.16,-0.97,-0.14,-51.49,4.67,-17.59
-0.07,-0.88,-0.24,-51.88,-31.9,-16.08
-0.11,-0.73,-0.34,-48.81,-59.25,-14.11
-0.15,-0.59,-0.4,-43.36,-55.93,-3.77
-0.18,-0.46,-0.43,-35.62,-49.53,3.63
-0.2,-0.39,-0.49,-37.52,-26.01,19.29
-0.19,-0.42,-0.55,-27.4,-8.98,27.09
-0.2,-0.43,-0.6,-2.85,1.38,23.87
-0.23,-0.52,-0.6,13.59,2.12,22.32
-0.27,-0.73,-0.54,17.4,0.6,18.62
-0.3,-0.97,-0.45,19.53,4.16,17.18
-0.29,-1.11,-0.36,26.98,1.4,13.27
-0.34,-1.19,-0.26,27.08,-6.06,0.16
-0.46,-1.23,-0.05,11.85,-5.3,-22.7
-0.59,-1.23,0.13,-19.1,7.49,-28.15
-0.5,-1.19,0.14,-44.82,21.56,-32.02
-0.31,-1.09,-0.01,-59.82,8.7,-25.2
-0.14,-0.94,-0.2,-59.9,-11.74,-17.19
-0.1,-0.78,-0.27,-58.17,-39.0,-18.33
-0.13,-0.64,-0.32,-53.58,-63.29,-11.26
-0.17,-0.54,-0.35,-50.31,-64.0,0.37
-0.18,-0.45,-0.37,-44.31,-64.0,13.12
-0.17,-0.37,-0.48,-41.44,-54.91,30.66
-0.17,-0.36,-0.59,-23.35,-41.68,31.25
-0.23,-0.35,-0.59,4.28,-29.71,23.01
-0.34,-0.47,-0.56,20.75,-20.46,21.43
-0.41,-0.74,-0.47,22.45,-3.51,17.97
-0.41,-1.03,-0.42,24.3,4.92,17.04
-0.36,-1.19,-0.32,23.24,-4.09,16.08
-0.35,-1.22,-0.22,17.6,-20.86,5.3
-0.44,-1.18,-0.11,8.04,-20.76,-21.91
-0.61,-1.12,0.06,-20.36,-11.45,-33.54
-0.59,-1.14,0.07,-47.87,13.41,-29.3
-0.37,-1.1,-0.11,-54.43,3.82,-23.6
-0.22,-0.92,-0.23,-58.99,-20.36,-15.61
-0.15,-0.75,-0.29,-58.12,-41.53,-3.44
-0.12,-0.58,-0.38,-46.1,-55.32,4.32
-0.17,-0.45,-0.44,-32.78,-64.0,2.19
-0.23,-0.4,-0.46,-28.42,-58.22,9.29
-0.27,-0.47,-0.56,-18.59,-32.94,14.87
-0.34,-0.51,-0.64,2.83,-2.06,11.54
-0.41,-0.57,-0.55,11.79,17.05,11.52
-0.42,-0.76,-0.42,15.02,31.93,9.78
-0.38,-0.96,-0.36,16.58,26.24,5.02
-0.34,-1.1,-0.26,13.92,17.95,1.03
-0.32,-1.18,-0.14,4.76,-0.51,-3.21
-0.37,-1.15,-0.08,2.31,-9.97,-12.61
-0.44,-1.04,-0.02,-12.62,-18.13,-19.99
-0.48,-1.0,0.04,-36.74,-18.66,-22.92
-0.44,-0.97,0.01,-49.76,-18.36,-18.59
-0.35,-0.85,-0.1,-56.75,-20.19,-9.73
-0.25,-0.7,-0.22,-54.05,-28.69,-2.03
-0.18,-0.57,-0.36,-40.35,-31.84,5.55
-0.15,-0.45,-0.44,-24.25,-42.33,15.65
-0.19,-0.42,-0.49,-15.65,-36.33,16.63
-0.3,-0.46,-0.47,0.21,-27.65,7.69
-0.43,-0.56,-0.39,12.24,-5.8,9.64
-0.46,-0.7,-0.41,14.78,15.78,9.74
-0.44,-0.86,-0.42,10.93,27.17,6.13
