ax,ay,az,gx,gy,gz
0.23,-0.86,-0.34,-8.61,-22.73,6.84
0.22,-0.89,-0.36,-12.76,-17.87,7.66
0.24,-0.89,-0.36,-13.34,-17.18,13.69
0.28,-0.87,-0.35,-18.56,-23.98,18.53
0.28,-0.85,-0.34,-19.04,-31.01,27.06
0.27,-0.82,-0.32,-19.52,-41.64,32.26
0.26,-0.78,-0.28,-19.77,-56.1,39.79
0.25,-0.74,-0.23,-18.83,-64.0,45.69
0.23,-0.71,-0.2,-18.16,-64.0,52.37
0.15,-0.72,-0.21,-20.73,-64.0,57.0
0.08,-0.74,-0.23,-24.54,-59.12,61.23
0.04,-0.76,-0.25,-28.48,-51.28,64.0
0.05,-0.75,-0.26,-32.18,-51.43,64.0
0.08,-0.77,-0.27,-34.75,-58.75,64.0
0.1,-0.81,-0.3,-35.65,-64.0,64.0
0.08,-0.85,-0.34,-35.87,-64.0,64.0
0.03,-0.87,-0.37,-33.23,-64.0,60.52
-0.04,-0.89,-0.39,-33.82,-64.0,55.63
-0.1,-0.92,-0.41,-32.74,-58.36,49.78
-0.14,-0.94,-0.47,-35.43,-41.14,42.75
-0.14,-0.97,-0.47,-35.4,-28.36,34.85
-0.14,-1.0,-0.51,-35.61,-22.45,28.16
-0.12,-1.01,-0.53,-36.29,-24.56,21.59
-0.1,-1.02,-0.54,-33.66,-31.32,13.37
-0.1,-1.03,-0.55,-32.98,-35.95,6.7
-0.11,-1.03,-0.55,-31.46,-35.56,-1.52
-0.14,-1.02,-0.55,-27.22,-33.34,-9.45
-0.17,-0.99,-0.56,-23.29,-24.62,-17.78
-0.19,-0.97,-0.55,-24.38,-11.74,-20.31
-0.19,-0.95,-0.52,-26.45,2.26,-24.04
-0.18,-0.92,-0.5,-25.96,10.61,-25.77
-0.15,-0.88,-0.48,-24.86,12.11,-28.24
-0.11,-0.85,-0.48,-24.59,9.89,-28.45
-0.09,-0.83,-0.48,-22.76,5.75,-28.39
-0.09,-0.81,-0.48,-22.49,3.86,-27.9
-0.11,-0.8,-0.45,-24.66,6.76,-30.08
-0.13,-0.8,-0.43,-26.22,13.63,-29.28
-0.13,-0.8,-0.43,-28.58,22.63,-28.72
-0.12,-0.81,-0.44,-31.72,30.68,-29.12
-0.1,-0.82,-0.44,-33.32,33.76,-29.06
-0.08,-0.83,-0.46,-34.12,35.26,-30.74
-0.07,-0.84,-0.47,-35.31,36.95,-31.75
-0.05,-0.86,-0.47,-37.81,37.04,-31.06
-0.03,-0.88,-0.44,-39.5,35.22,-31.79
-0.04,-0.91,-0.45,-38.58,38.01,-34.46
-0.04,-0.93,-0.47,-36.87,39.71,-38.14
-0.03,-0.97,-0.46,-36.18,38.32,-42.27
-0.01,-0.94,-0.44,-35.66,38.61,-46.02
0.01,-0.92,-0.42,-35.04,39.66,-50.19
0.03,-0.88,-0.42,-32.14,44.11,-53.37
0.05,-0.82,-0.44,-28.41,48.79,-56.53
0.08,-0.78,-0.43,-25.93,56.35,-54.27
0.13,-0.75,-0.37,-27.88,55.84,-49.94
0.21,-0.73,-0.37,-26.29,49.27,-42.38
0.27,-0.7,-0.35,-25.06,39.79,-33.15
0.29,-0.68,-0.35,-24.6,28.45,-26.41
0.29,-0.67,-0.36,-24.1,15.2,-19.17
0.28,-0.67,-0.35,-25.43,-1.05,-12.44
0.27,-0.69,-0.31,-28.85,-17.87,-4.29
0.26,-0.71,-0.29,-30.6,-31.54,0.79
0.24,-0.71,-0.33,-27.38,-44.94,4.69
0.2,-0.7,-0.37,-26.69,-46.83,9.37
0.14,-0.71,-0.38,-24.89,-45.15,10.17
0.09,-0.73,-0.4,-23.52,-43.18,7.62
0.07,-0.75,-0.42,-18.59,-39.29,5.71
0.08,-0.76,-0.44,-15.89,-38.12,4.5
0.08,-0.76,-0.46,-11.09,-37.04,0.99
0.09,-0.76,-0.52,-5.12,-32.24,-1.05
0.09,-0.78,-0.53,-2.64,-29.08,-3.68
0.09,-0.8,-0.5,-4.45,-21.88,-5.07
0.13,-0.83,-0.51,-4.04,-17.63,-3.24
0.16,-0.82,-0.51,-5.11,-14.69,-2.64
0.18,-0.81,-0.51,-5.7,-11.94,-0.04
0.19,-0.79,-0.53,-6.53,-10.56,2.31
0.19,-0.79,-0.52,-8.92,-10.85,3.33
0.19,-0.8,-0.52,-12.05,-9.17,7.29
0.17,-0.8,-0.52,-14.37,-6.91,7.99
0.14,-0.8,-0.51,-20.07,-4.88,7.42
0.14,-0.81,-0.49,-24.92,-6.76,7.46
0.15,-0.82,-0.51,-27.53,-11.71,7.33
0.15,-0.82,-0.54,-27.55,-12.89,9.98
0.13,-0.83,-0.54,-26.82,-14.29,6.51
0.11,-0.86,-0.54,-25.35,-12.65,5.51
0.09,-0.89,-0.53,-24.85,-11.72,1.77
0.07,-0.89,-0.53,-25.35,-6.84,-2.57
0.05,-0.88,-0.52,-23.53,-3.93,-5.57
0.04,-0.87,-0.51,-22.95,0.49,-9.22
0.07,-0.87,-0.51,-22.27,0.95,-11.25
0.09,-0.84,-0.51,-22.1,-0.03,-12.37
0.1,-0.81,-0.51,-22.7,-2.18,-11.13
0.1,-0.79,-0.5,-22.38,-3.28,-9.76
0.11,-0.77,-0.5,-22.4,-1.4,-7.61
0.14,-0.74,-0.5,-21.96,-3.57,-5.94
0.14,-0.72,-0.5,-22.87,-1.4,-2.35
0.13,-0.72,-0.51,-22.16,1.7,1.73
0.11,-0.71,-0.52,-21.78,2.87,2.19
0.1,-0.72,-0.52,-23.07,2.79,3.42
0.11,-0.74,-0.52,-23.12,0.51,4.81
0.13,-0.75,-0.53,-24.38,-2.19,5.45
0.13,-0.75,-0.54,-23.56,-3.8,5.92
0.11,-0.76,-0.56,-21.71,-1.21,6.09
0.09,-0.78,-0.56,-22.27,2.55,3.09
0.09,-0.82,-0.56,-22.19,6.12,0.5
0.1,-0.85,-0.56,-22.43,6.65,-3.69
0.16,-0.88,-0.56,-26.76,6.96,-7.66
0.14,-0.91,-0.55,-28.34,5.96,-11.23
0.14,-0.93,-0.55,-29.53,9.2,-14.14
0.13,-0.94,-0.55,-27.69,17.01,-17.48
0.13,-0.93,-0.54,-26.26,21.36,-18.51
0.12,-0.88,-0.54,-23.1,21.47,-20.19
0.12,-0.82,-0.52,-23.19,16.14,-22.26
0.12,-0.77,-0.5,-21.11,11.14,-21.6
0.13,-0.7,-0.48,-21.06,2.17,-19.27
0.12,-0.64,-0.43,-24.68,-2.35,-16.02
0.12,-0.58,-0.39,-31.31,-4.98,-12.04
0.13,-0.54,-0.39,-37.71,-9.62,-4.29
0.17,-0.52,-0.42,-42.18,-16.17,4.96
0.23,-0.52,-0.48,-39.7,-24.16,16.11
0.31,-0.54,-0.55,-34.69,-35.49,27.58
0.31,-0.58,-0.61,-32.08,-49.99,34.22
0.24,-0.64,-0.62,-27.55,-58.84,35.7
0.11,-0.71,-0.69,-13.62,-39.96,31.47
0.02,-0.77,-0.78,1.38,0.48,27.1
-0.05,-0.85,-0.81,15.65,30.32,17.65
-0.09,-0.92,-0.74,20.68,57.15,10.53
-0.07,-1.0,-0.68,24.04,64.0,2.12
-0.04,-1.02,-0.6,23.18,64.0,-11.65
-0.01,-1.01,-0.51,18.02,58.93,-24.46
0.03,-0.98,-0.44,9.25,48.48,-31.5
0.11,-0.92,-0.41,-0.45,37.88,-32.86
0.15,-0.84,-0.35,-19.96,25.08,-32.94
0.19,-0.76,-0.32,-36.36,15.88,-24.96
0.25,-0.65,-0.37,-49.38,0.55,-14.42
0.33,-0.56,-0.44,-53.27,-18.6,-4.66
0.38,-0.51,-0.57,-47.01,-31.9,8.48
0.4,-0.5,-0.7,-35.49,-35.54,22.38
0.33,-0.54,-0.76,-21.97,-28.75,28.95
0.2,-0.6,-0.76,-9.18,5.46,32.96
0.07,-0.67,-0.73,3.16,41.03,28.61
0.02,-0.77,-0.68,12.4,64.0,25.86
0.05,-0.89,-0.64,25.21,63.62,16.49
0.05,-0.99,-0.55,28.28,59.81,6.92
0.01,-1.08,-0.43,24.13,44.61,-7.42
0.01,-1.09,-0.39,19.46,37.71,-22.49
-0.03,-1.05,-0.32,3.29,26.83,-42.83
-0.05,-1.0,-0.26,-18.61,31.84,-51.84
0.03,-0.91,-0.25,-40.68,34.52,-53.47
0.16,-0.77,-0.36,-52.48,32.71,-47.06
0.34,-0.63,-0.49,-56.11,19.26,-37.04
0.46,-0.53,-0.67,-42.12,16.23,-21.68
0.54,-0.47,-0.82,-22.74,17.6,-7.86
0.48,-0.52,-0.82,-19.54,13.02,-0.82
0.34,-0.67,-0.75,-14.89,23.62,5.53
0.24,-0.77,-0.66,-8.18,49.5,0.21
0.15,-0.86,-0.58,-4.11,64.0,-5.66
0.12,-0.93,-0.5,1.76,64.0,-16.41
0.14,-0.96,-0.48,5.82,64.0,-21.02
0.18,-0.96,-0.4,3.07,64.0,-33.31
0.22,-0.92,-0.37,-1.89,45.78,-44.81
0.22,-0.88,-0.3,-23.61,31.53,-52.16
0.24,-0.83,-0.26,-37.21,36.35,-48.1
0.33,-0.7,-0.33,-48.7,33.34,-41.95
0.44,-0.59,-0.4,-56.45,24.69,-33.65
0.51,-0.55,-0.48,-54.48,9.2,-25.71
0.57,-0.54,-0.6,-43.74,3.2,-15.21
0.61,-0.56,-0.7,-29.18,8.16,-6.38
0.57,-0.6,-0.72,-20.24,20.11,4.45
0.48,-0.67,-0.64,-14.96,39.77,12.58
0.4,-0.75,-0.54,-6.22,49.96,8.7
0.34,-0.84,-0.47,3.82,62.12,4.18
0.33,-0.89,-0.38,7.38,45.96,-6.37
0.3,-0.89,-0.32,-0.15,32.45,-19.33
0.27,-0.86,-0.23,-9.18,18.16,-31.72
0.25,-0.79,-0.22,-24.68,10.47,-40.96
0.29,-0.72,-0.18,-42.95,13.69,-39.4
0.42,-0.62,-0.24,-52.88,4.24,-28.91
0.56,-0.5,-0.39,-55.12,-15.72,-14.34
0.68,-0.47,-0.52,-45.04,-36.14,1.81
0.68,-0.43,-0.63,-30.88,-48.78,9.16
0.61,-0.45,-0.71,-14.08,-34.84,16.48
0.54,-0.56,-0.73,-2.44,7.99,23.87
0.43,-0.63,-0.66,0.47,37.33,24.52
0.38,-0.73,-0.54,4.44,55.81,25.95
0.39,-0.83,-0.49,13.06,53.07,21.83
0.41,-0.9,-0.45,23.73,29.31,13.36
0.38,-0.95,-0.36,19.26,1.47,-2.15
0.33,-0.96,-0.25,8.48,-11.7,-15.74
0.29,-0.9,-0.21,-10.79,-18.15,-25.07
0.3,-0.79,-0.18,-32.25,-9.48,-27.75
0.4,-0.68,-0.25,-45.97,-14.08,-23.21
0.56,-0.58,-0.4,-50.28,-24.68,-10.18
0.63,-0.51,-0.56,-46.33,-31.75,1.57
0.64,-0.47,-0.69,-34.75,-45.96,8.74
0.58,-0.49,-0.78,-20.35,-36.4,15.91
0.49,-0.55,-0.83,-1.4,-1.81,20.31
0.4,-0.64,-0.74,7.41,46.2,17.58
0.36,-0.76,-0.59,8.33,64.0,18.83
0.42,-0.85,-0.48,12.19,61.83,20.3
0.47,-0.9,-0.43,15.94,32.23,15.04
0.42,-0.96,-0.28,7.4,5.98,0.0
0.35,-0.97,-0.18,-6.71,-14.48,-16.8
0.3,-0.9,-0.17,-26.95,-19.66,-26.34
0.33,-0.79,-0.21,-40.93,-13.85,-24.48
0.43,-0.65,-0.35,-47.85,-20.56,-17.92
0.53,-0.56,-0.49,-45.32,-36.48,-7.58
0.58,-0.51,-0.63,-31.82,-35.45,2.16
0.58,-0.5,-0.74,-18.87,-29.54,6.85
0.53,-0.55,-0.77,-6.28,3.7,14.84
0.47,-0.61,-0.73,-1.56,31.84,20.57
0.43,-0.68,-0.6,-1.8,48.66,21.98
0.45,-0.76,-0.48,3.48,51.11,21.57
0.47,-0.82,-0.43,10.94,44.06,20.34
0.45,-0.89,-0.4,19.76,25.01,13.58
0.37,-0.95,-0.33,17.28,9.27,2.13
0.31,-0.95,-0.22,7.23,-3.58,-12.58
0.28,-0.91,-0.14,-13.11,-16.79,-25.3
0.29,-0.85,-0.1,-32.3,-12.2,-28.2
0.38,-0.76,-0.19,-42.41,-19.14,-24.31
0.51,-0.63,-0.35,-50.55,-36.85,-13.18
0.62,-0.52,-0.52,-45.16,-46.46,2.5
0.62,-0.44,-0.65,-36.35,-54.46,9.65
0.55,-0.46,-0.78,-20.31,-38.87,15.42
0.49,-0.54,-0.8,-4.27,-0.64,18.7
0.43,-0.63,-0.74,3.46,37.5,19.21
0.39,-0.73,-0.62,6.41,64.0,20.67
0.44,-0.84,-0.5,10.97,62.33,19.97
0.49,-0.94,-0.44,18.61,44.9,17.72
0.47,-1.01,-0.34,17.35,24.79,7.76
0.41,-1.03,-0.22,8.23,5.44,-6.98
0.35,-0.98,-0.18,-5.3,-18.79,-23.78
0.3,-0.91,-0.12,-29.45,-13.48,-32.06
0.33,-0.79,-0.19,-39.04,-9.55,-30.42
0.45,-0.68,-0.32,-50.61,-22.19,-23.8
0.55,-0.55,-0.46,-48.94,-37.7,-9.93
0.59,-0.47,-0.58,-41.9,-46.34,0.1
0.55,-0.45,-0.67,-30.58,-43.45,4.75
0.5,-0.5,-0.74,-16.61,-14.74,11.63
0.46,-0.58,-0.74,-4.52,22.45,15.99
0.43,-0.66,-0.69,4.42,47.82,15.33
0.47,-0.77,-0.58,7.0,62.34,15.06
0.51,-0.86,-0.49,10.36,55.66,16.61
0.51,-0.92,-0.42,19.38,46.15,21.34
0.47,-0.96,-0.34,21.34,27.01,9.88
0.37,-1.0,-0.2,10.16,3.73,-8.48
0.3,-1.0,-0.12,-6.72,-19.8,-28.93
0.27,-0.94,-0.05,-34.51,-30.47,-39.81
0.28,-0.86,-0.06,-55.62,-22.99,-40.8
0.39,-0.7,-0.23,-61.57,-26.48,-34.96
0.54,-0.54,-0.45,-58.53,-33.46,-20.55
0.62,-0.44,-0.61,-46.82,-41.57,-5.99
0.61,-0.43,-0.72,-28.97,-40.78,4.72
0.55,-0.47,-0.82,-8.28,-22.07,13.16
0.47,-0.55,-0.8,4.97,17.78,17.89
0.4,-0.64,-0.67,9.53,50.35,15.82
0.38,-0.75,-0.53,9.2,64.0,15.8
0.45,-0.85,-0.42,16.11,64.0,16.74
0.5,-0.92,-0.39,22.61,38.58,12.88
0.46,-0.99,-0.25,15.65,13.55,-1.54
0.39,-1.01,-0.14,4.05,-5.69,-16.78
0.33,-0.96,-0.07,-18.81,-22.89,-29.31
0.34,-0.88,-0.07,-35.81,-16.75,-28.44
0.43,-0.74,-0.21,-42.64,-27.17,-22.83
0.52,-0.6,-0.39,-43.58,-45.87,-11.24
0.57,-0.48,-0.54,-37.29,-61.5,0.15
0.55,-0.4,-0.65,-29.51,-54.49,7.67
0.49,-0.42,-0.73,-14.85,-32.86,14.05
0.46,-0.49,-0.79,-3.82,4.91,20.86
0.42,-0.61,-0.73,1.36,34.67,21.76
0.4,-0.73,-0.61,5.69,56.79,20.63
0.45,-0.83,-0.49,12.94,63.29,22.07
0.49,-0.93,-0.43,24.47,38.57,18.3
0.47,-1.02,-0.31,19.59,17.66,6.28
0.4,-1.11,-0.16,8.08,-5.81,-11.12
0.34,-1.09,-0.07,-12.41,-27.38,-27.49
0.33,-0.98,-0.03,-29.34,-18.77,-29.66
0.4,-0.83,-0.13,-35.74,-25.29,-23.25
0.5,-0.69,-0.29,-38.07,-48.26,-9.59
0.54,-0.56,-0.42,-35.93,-63.81,4.76
0.54,-0.4,-0.55,-30.93,-63.77,13.46
0.52,-0.3,-0.67,-17.8,-50.66,21.47
0.53,-0.31,-0.8,-4.18,-15.59,29.05
0.52,-0.45,-0.81,2.59,12.06,38.44
0.46,-0.63,-0.71,3.21,31.8,39.78
0.41,-0.76,-0.59,5.71,50.07,38.05
0.41,-0.85,-0.54,18.09,46.49,29.91
0.35,-0.95,-0.42,18.75,30.12,13.4
0.29,-1.15,-0.2,5.71,20.53,-2.35
0.28,-1.29,-0.08,-9.59,-8.71,-28.45
0.28,-1.28,-0.04,-38.95,-13.22,-45.48
0.38,-1.07,-0.14,-47.74,-11.83,-45.11
0.52,-0.84,-0.35,-50.23,-25.18,-40.98
0.58,-0.63,-0.56,-44.43,-34.63,-28.96
0.59,-0.51,-0.71,-29.67,-17.57,-19.24
0.54,-0.42,-0.75,-22.47,-0.87,-14.97
0.52,-0.43,-0.75,-15.49,31.08,-1.73
0.54,-0.5,-0.67,-14.94,44.52,6.25
0.51,-0.6,-0.54,-12.86,53.02,10.98
0.51,-0.67,-0.45,-8.33,61.2,15.25
0.51,-0.72,-0.39,2.71,50.51,18.49
0.45,-0.81,-0.35,18.83,28.2,15.05
0.34,-0.92,-0.19,13.43,9.34,-1.49
0.25,-1.01,-0.01,-5.88,-1.39,-18.18
0.25,-0.95,0.04,-25.46,-11.21,-23.89
0.36,-0.8,0.01,-43.39,-19.24,-17.36
0.5,-0.66,-0.14,-51.38,-50.06,-8.69
0.58,-0.56,-0.32,-55.82,-64.0,4.04
0.6,-0.48,-0.48,-50.97,-64.0,18.21
0.56,-0.41,-0.63,-39.32,-64.0,23.92
0.52,-0.4,-0.75,-29.27,-63.83,30.67
0.43,-0.47,-0.81,-6.51,-19.89,37.18
0.4,-0.58,-0.86,9.57,25.86,40.02
0.37,-0.72,-0.73,12.97,49.37,34.35
0.39,-0.85,-0.61,20.54,62.42,35.15
0.4,-0.94,-0.52,26.41,54.18,29.51
0.36,-1.04,-0.39,33.35,46.94,20.52
0.33,-1.13,-0.27,29.1,22.34,0.59
0.29,-1.18,-0.08,3.34,3.94,-20.95
0.27,-1.13,-0.0,-19.25,-9.01,-35.64
0.37,-0.98,-0.05,-43.56,-4.78,-37.75
0.47,-0.81,-0.21,-54.26,-20.25,-30.3
0.59,-0.65,-0.43,-52.18,-44.85,-17.67
0.65,-0.52,-0.6,-41.37,-49.89,-6.75
0.6,-0.45,-0.72,-28.88,-42.7,-0.96
0.51,-0.46,-0.8,-15.34,-4.75,6.64
0.42,-0.54,-0.78,-4.99,30.28,10.95
0.37,-0.64,-0.66,-1.18,62.66,10.46
0.38,-0.74,-0.55,4.73,64.0,12.78
0.46,-0.82,-0.45,15.44,63.0,17.02
0.46,-0.91,-0.36,27.34,33.21,9.34
0.34,-1.06,-0.15,13.39,17.3,-9.3
0.23,-1.12,0.02,-7.75,-5.46,-28.23
0.23,-1.06,0.06,-35.44,-17.44,-39.09
0.35,-0.9,0.01,-56.44,-25.13,-35.92
0.5,-0.71,-0.22,-60.56,-48.64,-25.42
0.58,-0.57,-0.42,-58.46,-62.54,-11.16
0.58,-0.45,-0.57,-46.28,-62.17,-0.32
0.54,-0.37,-0.77,-23.71,-38.89,8.35
0.5,-0.39,-0.82,-10.89,-9.04,14.83
0.45,-0.47,-0.83,4.7,38.83,28.07
0.44,-0.61,-0.67,2.88,58.1,29.15
0.44,-0.73,-0.51,4.21,64.0,31.95
0.49,-0.8,-0.46,11.79,31.96,30.76
0.41,-0.88,-0.39,16.26,7.99,22.74
0.25,-1.05,-0.1,-0.76,-3.27,-0.61
0.17,-1.19,0.03,-16.81,-16.04,-23.94
0.19,-1.17,0.06,-46.97,-18.45,-41.77
0.35,-1.0,-0.07,-52.2,-22.3,-36.57
0.53,-0.77,-0.32,-57.59,-53.48,-31.14
0.59,-0.65,-0.5,-51.94,-64.0,-21.76
0.6,-0.51,-0.76,-29.14,-47.46,-15.03
0.55,-0.45,-0.84,-22.95,-28.09,-14.06
0.51,-0.49,-0.91,-1.06,26.49,3.94
0.55,-0.54,-0.9,5.95,63.71,16.17
0.53,-0.63,-0.65,5.69,64.0,19.17
0.54,-0.69,-0.48,5.01,64.0,31.8
0.61,-0.74,-0.45,17.4,27.96,37.16
0.47,-0.81,-0.37,24.43,-7.07,26.26
0.22,-0.96,-0.05,0.67,0.45,8.25
0.1,-1.05,0.05,-12.02,-13.94,-19.51
0.1,-1.0,0.11,-51.17,-11.2,-32.62
0.29,-0.86,-0.01,-57.98,-13.64,-24.69
0.53,-0.67,-0.23,-64.0,-52.19,-12.26
0.64,-0.56,-0.37,-64.0,-64.0,9.56
0.63,-0.5,-0.57,-49.1,-64.0,25.15
0.6,-0.35,-0.73,-34.95,-64.0,28.63
0.48,-0.35,-0.8,-23.74,-56.24,32.24
0.36,-0.48,-0.89,-6.07,-5.7,44.22
0.35,-0.64,-0.85,2.39,27.55,46.2
0.36,-0.78,-0.71,6.48,40.48,39.19
0.38,-0.84,-0.62,14.8,39.51,37.25
0.31,-0.91,-0.49,17.51,29.6,27.25
0.26,-1.05,-0.31,9.19,12.96,8.81
0.2,-1.2,-0.14,-10.96,-1.9,-10.95
0.23,-1.22,-0.05,-32.71,-12.65,-22.38
0.36,-1.06,-0.09,-44.11,-27.98,-23.58
0.47,-0.87,-0.22,-48.66,-49.93,-20.76
0.51,-0.73,-0.31,-57.52,-64.0,-13.47
0.46,-0.65,-0.42,-58.34,-64.0,-2.46
0.41,-0.54,-0.58,-46.87,-64.0,5.16
0.4,-0.4,-0.74,-31.73,-64.0,7.28
0.31,-0.36,-0.79,-21.06,-37.0,7.81
0.26,-0.42,-0.9,-2.61,9.92,18.28
0.27,-0.51,-0.89,4.04,37.82,20.17
0.27,-0.66,-0.7,4.99,51.93,20.12
0.34,-0.74,-0.66,14.72,50.51,25.98
0.34,-0.8,-0.53,11.32,23.39,18.96
0.21,-0.95,-0.32,8.66,14.51,5.11
0.13,-1.14,-0.22,-1.98,2.56,-10.98
0.13,-1.23,-0.13,-21.97,-5.99,-26.77
0.22,-1.15,-0.16,-32.86,-17.85,-31.42
0.32,-0.93,-0.29,-36.49,-37.93,-32.31
0.35,-0.72,-0.45,-36.37,-42.22,-29.69
0.33,-0.58,-0.57,-37.3,-39.41,-26.01
0.35,-0.49,-0.69,-31.28,-17.16,-19.1
0.41,-0.45,-0.77,-28.06,-10.84,-15.89
0.44,-0.47,-0.89,-12.78,25.5,5.84
0.48,-0.51,-0.9,-4.26,38.53,15.45
0.43,-0.58,-0.78,-2.45,56.45,19.48
0.38,-0.69,-0.66,1.29,64.0,17.99
0.38,-0.73,-0.68,9.08,64.0,18.4
0.37,-0.76,-0.71,19.88,64.0,22.67
0.29,-0.87,-0.57,26.89,64.0,16.33
0.14,-0.98,-0.36,26.65,64.0,0.23
0.09,-1.13,-0.18,17.01,64.0,-27.12
0.11,-1.2,-0.03,-6.72,45.46,-52.47
0.19,-1.15,-0.0,-34.22,34.01,-64.0
0.36,-0.97,-0.09,-50.44,19.82,-59.45
0.57,-0.77,-0.24,-64.0,-13.96,-50.12
0.66,-0.64,-0.4,-64.0,-41.69,-38.38
0.66,-0.48,-0.67,-50.11,-33.08,-24.02
0.52,-0.4,-0.74,-47.61,-33.06,-28.98
0.4,-0.42,-0.88,-19.7,32.07,-10.96
0.43,-0.48,-0.91,-7.61,64.0,-4.74
0.47,-0.57,-0.78,2.29,64.0,8.38
0.55,-0.62,-0.62,10.31,64.0,24.28
0.58,-0.67,-0.44,17.25,64.0,33.31
0.49,-0.78,-0.32,31.32,50.64,27.61
0.34,-0.85,-0.16,18.82,31.91,11.34
0.27,-0.94,0.06,2.35,-3.19,-5.28
0.26,-0.89,0.08,-20.74,-25.27,-14.54
0.31,-0.8,0.14,-48.76,-33.05,-19.84
0.43,-0.7,-0.0,-58.15,-49.55,-13.27
0.62,-0.62,-0.23,-64.0,-64.0,0.02
0.67,-0.55,-0.46,-52.3,-64.0,15.94
0.64,-0.46,-0.66,-41.06,-64.0,13.47
0.52,-0.45,-0.86,-9.65,-58.12,24.46
0.45,-0.5,-0.95,7.71,-7.34,28.95
0.37,-0.59,-0.87,18.16,39.05,36.37
0.4,-0.71,-0.71,19.11,61.65,39.09
0.48,-0.78,-0.56,19.59,59.37,37.87
0.5,-0.79,-0.52,23.92,39.58,36.57
0.41,-0.82,-0.38,19.11,31.31,32.82
0.32,-0.92,-0.25,18.7,5.51,22.78
0.3,-1.0,-0.11,-0.36,-14.47,5.27
0.26,-1.05,0.01,-25.96,-37.04,-10.24
0.25,-1.02,-0.0,-48.53,-33.26,-18.36
0.33,-0.89,-0.14,-59.92,-46.81,-17.02
0.43,-0.76,-0.27,-64.0,-64.0,-8.77
0.48,-0.69,-0.38,-64.0,-64.0,-7.63
0.48,-0.58,-0.64,-45.61,-64.0,-0.6
0.43,-0.49,-0.84,-27.25,-64.0,0.37
0.35,-0.52,-0.95,-2.56,-1.69,13.25
0.35,-0.6,-1.0,13.04,42.93,18.8
0.35,-0.72,-0.81,15.07,63.1,20.33
0.36,-0.83,-0.61,22.57,59.64,20.65
0.4,-0.9,-0.49,26.1,42.09,13.46
0.36,-0.98,-0.28,11.68,14.7,-6.89
0.28,-1.04,-0.17,-10.72,2.38,-19.55
0.29,-0.99,-0.14,-25.21,-1.77,-23.09
0.39,-0.84,-0.19,-42.26,-11.1,-19.76
0.48,-0.73,-0.29,-50.55,-29.19,-10.64
0.48,-0.66,-0.39,-51.94,-54.94,-6.91
0.42,-0.62,-0.52,-47.44,-62.17,-4.25
0.34,-0.59,-0.61,-39.03,-54.89,-8.48
0.3,-0.53,-0.76,-20.54,-7.26,-2.95
0.35,-0.54,-0.84,-7.14,29.36,3.34
0.38,-0.57,-0.82,1.06,58.44,13.1
0.43,-0.67,-0.71,4.78,64.0,17.57
0.5,-0.76,-0.62,12.94,61.23,23.93
0.53,-0.78,-0.6,18.34,34.05,19.96
0.34,-0.8,-0.52,18.53,49.05,20.14
0.21,-0.87,-0.33,14.88,43.28,6.94
0.18,-0.97,-0.19,5.6,41.33,-5.72
0.22,-1.06,-0.05,-18.24,2.59,-28.31
0.24,-1.06,0.02,-46.11,-15.26,-34.79
0.36,-0.94,-0.07,-59.69,-33.62,-33.22
0.5,-0.76,-0.27,-64.0,-64.0,-25.88
0.53,-0.62,-0.5,-56.2,-64.0,-13.36
0.51,-0.47,-0.78,-30.83,-45.7,-7.06
0.43,-0.44,-0.89,-12.12,-2.77,-1.37
0.39,-0.52,-0.89,1.95,43.69,4.36
0.4,-0.6,-0.79,6.84,64.0,12.93
0.43,-0.69,-0.62,6.28,64.0,19.08
0.48,-0.73,-0.5,10.81,64.0,23.63
0.49,-0.76,-0.47,21.42,40.71,21.65
0.35,-0.83,-0.35,16.29,19.15,7.75
0.21,-0.97,-0.17,5.06,25.43,-6.83
0.18,-1.03,-0.09,-14.14,8.59,-25.28
0.26,-1.0,-0.02,-41.51,7.92,-31.05
0.43,-0.89,-0.11,-52.94,-14.11,-28.76
0.58,-0.77,-0.27,-62.84,-43.43,-24.65
0.62,-0.72,-0.45,-58.98,-63.81,-20.03
0.55,-0.69,-0.63,-47.04,-59.21,-22.02
0.45,-0.64,-0.87,-19.72,-9.98,-17.27
0.42,-0.6,-0.95,-5.1,41.55,-15.04
0.43,-0.61,-0.85,2.45,64.0,-6.4
0.48,-0.68,-0.69,4.71,64.0,0.26
0.57,-0.75,-0.57,9.94,64.0,2.92
0.6,-0.79,-0.52,11.73,63.0,0.64
0.49,-0.82,-0.45,7.36,63.09,-1.95
0.35,-0.83,-0.32,7.77,64.0,-2.52
0.28,-0.82,-0.24,3.59,54.29,-16.46
0.29,-0.84,-0.16,-11.42,59.11,-21.13
0.35,-0.87,-0.08,-24.0,30.05,-30.85
0.42,-0.76,-0.15,-40.05,21.68,-21.26
0.56,-0.63,-0.25,-53.46,-3.99,-9.52
0.63,-0.53,-0.38,-54.01,-25.58,-0.13
0.6,-0.48,-0.54,-48.42,-39.56,4.11
0.52,-0.51,-0.71,-22.91,-11.25,10.31
0.46,-0.54,-0.84,-0.69,36.71,15.78
0.4,-0.59,-0.82,11.01,64.0,21.99
0.39,-0.66,-0.64,16.58,64.0,28.79
0.47,-0.73,-0.5,26.62,64.0,29.74
0.5,-0.83,-0.4,29.4,64.0,24.61
0.45,-0.96,-0.08,9.85,48.46,8.72
0.41,-1.01,0.06,-4.36,15.24,-10.93
0.39,-0.99,0.16,-42.35,-6.63,-25.77
0.42,-0.94,0.2,-60.61,-6.69,-28.98
0.56,-0.81,0.04,-64.0,-32.13,-24.7
0.67,-0.7,-0.15,-64.0,-62.42,-17.05
0.73,-0.58,-0.44,-45.94,-56.7,-6.13
0.67,-0.5,-0.54,-39.23,-64.0,-18.74
0.56,-0.53,-0.68,-3.0,-8.32,-5.52
0.59,-0.6,-0.76,14.83,33.24,-7.85
0.57,-0.69,-0.63,20.2,59.57,-2.79
0.63,-0.77,-0.45,24.26,63.74,2.83
0.72,-0.8,-0.33,27.24,42.63,0.43
0.7,-0.82,-0.26,34.8,17.07,-3.25
0.59,-0.88,-0.11,28.62,8.01,-14.29
0.49,-0.95,0.05,15.93,0.45,-30.61
0.46,-0.94,0.08,-0.64,-21.41,-45.61
0.49,-0.9,0.08,-18.68,-22.74,-48.72
0.58,-0.8,-0.06,-21.37,-32.95,-45.71
0.7,-0.67,-0.2,-30.41,-55.9,-40.19
0.74,-0.61,-0.31,-28.88,-64.0,-32.38
0.68,-0.54,-0.48,-17.61,-64.0,-29.6
0.65,-0.48,-0.72,7.3,-38.81,-21.17
0.62,-0.47,-0.8,22.31,5.1,-16.47
0.57,-0.51,-0.74,29.72,50.95,-4.63
0.57,-0.57,-0.56,28.81,64.0,4.12
0.63,-0.62,-0.45,36.59,64.0,12.88
0.68,-0.65,-0.45,43.28,26.87,14.65
0.54,-0.75,-0.18,22.62,13.38,4.5
0.4,-0.87,0.07,14.38,6.67,-11.26
0.33,-0.9,0.12,-20.78,-11.5,-29.73
0.34,-0.92,0.24,-53.39,-8.11,-38.75
0.5,-0.83,0.14,-64.0,-13.16,-33.49
0.69,-0.67,-0.09,-64.0,-51.75,-24.54
0.81,-0.57,-0.33,-64.0,-64.0,-7.23
0.91,-0.43,-0.73,-36.13,-53.49,9.82
0.8,-0.42,-0.75,-36.31,-53.95,1.76
0.66,-0.51,-0.85,9.1,36.31,22.57
0.66,-0.57,-0.82,4.46,51.96,15.69
0.54,-0.71,-0.53,7.18,64.0,19.48
0.57,-0.75,-0.4,11.32,64.0,20.96
0.62,-0.8,-0.29,14.12,50.47,16.45
0.57,-0.87,-0.06,-0.48,27.64,2.37
0.52,-0.91,0.07,-15.39,-9.65,-14.64
0.49,-0.89,0.12,-43.11,-18.47,-26.47
0.54,-0.8,0.09,-53.46,-11.19,-24.91
0.66,-0.67,-0.1,-64.0,-25.21,-18.24
0.78,-0.61,-0.24,-64.0,-52.64,-9.88
0.78,-0.56,-0.47,-49.2,-59.16,-3.15
0.73,-0.5,-0.67,-30.18,-38.42,2.25
0.65,-0.51,-0.72,-11.12,-3.47,2.7
0.59,-0.55,-0.75,4.66,47.63,12.89
0.57,-0.63,-0.59,4.08,64.0,12.23
0.6,-0.69,-0.43,8.26,64.0,18.86
0.72,-0.7,-0.39,20.65,46.37,21.45
0.65,-0.75,-0.29,18.0,8.4,10.68
0.45,-0.88,0.04,1.37,6.96,-6.92
0.38,-0.93,0.13,-14.41,-10.45,-30.2
0.41,-0.89,0.17,-47.77,-13.56,-38.36
0.56,-0.78,0.07,-58.3,-20.8,-32.97
0.74,-0.64,-0.12,-64.0,-51.53,-24.24
0.82,-0.56,-0.34,-58.44,-64.0,-9.62
0.84,-0.45,-0.63,-28.06,-47.64,2.33
0.76,-0.4,-0.75,-15.28,-35.95,5.45
0.65,-0.47,-0.77,9.58,17.94,16.94
0.56,-0.56,-0.68,7.84,42.23,11.86
0.47,-0.67,-0.47,10.73,60.5,8.45
0.53,-0.72,-0.34,12.69,56.81,6.56
0.61,-0.79,-0.22,10.55,42.49,6.74
0.65,-0.85,-0.11,9.5,14.8,5.27
0.67,-0.86,-0.05,-1.85,-14.17,-4.24
0.62,-0.86,0.03,-19.66,-25.75,-13.22
0.59,-0.82,-0.01,-27.54,-22.99,-15.04
0.65,-0.74,-0.15,-36.76,-30.2,-14.82
0.69,-0.69,-0.24,-44.9,-45.52,-7.69
0.7,-0.64,-0.31,-46.43,-63.41,-5.27
0.68,-0.56,-0.5,-32.54,-47.19,-2.17
0.71,-0.47,-0.67,-17.86,-23.27,-0.3
0.72,-0.49,-0.73,-0.86,19.39,7.75
0.74,-0.57,-0.76,9.7,52.76,18.46
0.69,-0.68,-0.57,4.61,64.0,19.75
0.66,-0.73,-0.4,11.7,64.0,22.54
0.65,-0.74,-0.36,19.18,37.73,20.67
0.55,-0.81,-0.16,6.97,31.27,9.48
0.48,-0.9,0.04,-2.23,4.81,-6.49
0.48,-0.91,0.11,-27.94,-17.26,-22.37
0.52,-0.87,0.15,-47.91,-17.6,-27.21
0.64,-0.74,0.01,-56.33,-28.62,-21.55
0.77,-0.62,-0.16,-64.0,-56.41,-11.64
0.79,-0.57,-0.28,-61.18,-64.0,-0.02
0.76,-0.47,-0.52,-41.27,-64.0,5.13
0.7,-0.41,-0.62,-33.95,-63.03,1.26
0.63,-0.45,-0.7,-7.64,-7.69,7.66
0.63,-0.52,-0.78,4.34,30.69,10.49
0.59,-0.64,-0.63,6.54,59.57,12.53
0.61,-0.74,-0.45,13.05,63.87,13.62
0.68,-0.81,-0.33,18.01,56.54,14.26
0.72,-0.88,-0.16,12.71,22.97,6.35
0.69,-0.91,-0.04,0.61,-15.94,-5.41
0.59,-0.91,0.09,-25.36,-40.09,-22.67
0.48,-0.89,0.14,-46.38,-28.71,-33.79
0.51,-0.78,-0.02,-55.2,-25.71,-37.32
0.62,-0.63,-0.17,-64.0,-40.14,-31.85
0.72,-0.56,-0.33,-62.73,-53.3,-18.75
0.78,-0.43,-0.58,-35.94,-43.92,-7.41
0.78,-0.34,-0.76,-17.38,-24.57,-2.78
0.73,-0.37,-0.79,5.81,15.93,7.56
0.7,-0.48,-0.74,8.18,39.97,16.35
0.6,-0.62,-0.5,5.3,55.61,15.9
0.57,-0.68,-0.36,10.18,61.79,19.84
0.58,-0.7,-0.29,14.68,30.58,14.73
0.52,-0.77,-0.11,6.64,15.69,4.14
0.48,-0.85,0.03,-3.32,-13.14,-9.8
0.46,-0.85,0.09,-27.71,-26.85,-19.86
0.49,-0.79,0.09,-38.75,-24.41,-19.95
0.61,-0.64,-0.08,-49.46,-37.9,-18.15
0.69,-0.55,-0.22,-59.96,-58.79,-8.95
0.75,-0.51,-0.37,-50.93,-64.0,0.15
0.81,-0.4,-0.68,-24.56,-45.77,11.54
0.81,-0.35,-0.8,-10.4,-28.76,13.96
0.78,-0.46,-0.84,9.34,16.2,26.01
0.72,-0.56,-0.76,11.49,35.11,25.19
0.63,-0.71,-0.55,13.63,56.71,24.06
0.61,-0.8,-0.4,19.08,57.49,21.83
0.61,-0.85,-0.27,18.51,43.7,14.97
0.62,-0.91,-0.14,15.78,16.49,5.79
0.6,-0.93,-0.04,-1.27,-16.66,-9.64
0.54,-0.9,0.08,-26.2,-34.11,-23.87
0.52,-0.81,0.03,-40.82,-30.08,-26.0
0.58,-0.66,-0.14,-52.31,-35.48,-23.94
0.65,-0.6,-0.28,-59.98,-52.49,-17.3
0.69,-0.52,-0.46,-50.21,-58.07,-9.77
0.74,-0.4,-0.75,-15.39,-31.16,2.29
0.74,-0.34,-0.91,-0.53,-6.27,9.24
0.66,-0.43,-0.85,14.02,33.55,22.03
0.58,-0.58,-0.65,8.54,52.46,21.52
0.53,-0.69,-0.47,11.64,57.48,19.72
0.56,-0.73,-0.38,17.91,52.4,20.94
0.55,-0.78,-0.25,19.28,34.25,15.86
0.49,-0.87,-0.1,13.74,13.42,3.65
0.47,-0.92,0.03,-2.71,-9.77,-8.84
0.48,-0.88,0.1,-23.87,-17.44,-17.15
0.56,-0.76,0.02,-35.47,-21.38,-14.67
0.67,-0.65,-0.12,-46.91,-37.67,-9.33
0.73,-0.61,-0.23,-54.66,-58.67,-1.12
0.74,-0.58,-0.33,-54.92,-64.0,2.89
0.74,-0.5,-0.58,-29.08,-52.59,7.91
0.8,-0.42,-0.85,1.77,-23.87,16.04
0.75,-0.47,-0.91,15.58,8.64,25.0
0.63,-0.63,-0.72,20.72,39.01,27.91
0.53,-0.77,-0.49,18.81,46.27,18.64
0.55,-0.83,-0.34,22.76,55.64,17.63
0.55,-0.88,-0.23,26.56,40.87,11.59
0.53,-0.94,-0.15,22.26,14.76,1.63
0.5,-0.99,-0.01,5.41,-13.62,-12.64
0.46,-0.98,0.11,-15.8,-23.52,-25.53
0.47,-0.89,0.1,-32.92,-20.14,-28.88
0.56,-0.75,-0.03,-46.56,-31.02,-27.39
0.63,-0.65,-0.14,-61.31,-51.59,-21.41
0.69,-0.58,-0.29,-57.88,-64.0,-12.3
0.76,-0.47,-0.57,-26.0,-55.29,-3.64
0.8,-0.37,-0.87,-2.02,-33.35,4.46
0.74,-0.41,-0.9,15.91,6.56,19.15
0.66,-0.54,-0.8,22.53,29.9,24.04
0.56,-0.68,-0.52,14.4,46.23,14.7
0.56,-0.77,-0.39,18.65,61.82,12.24
0.6,-0.78,-0.36,22.39,46.16,10.84
0.59,-0.84,-0.19,21.02,34.98,7.95
0.58,-0.95,-0.02,18.17,7.98,-4.08
0.54,-1.05,0.08,-4.56,-22.87,-21.55
0.47,-1.05,0.18,-34.22,-27.07,-33.34
0.5,-0.9,0.1,-45.14,-24.48,-34.22
0.6,-0.67,-0.11,-56.46,-35.4,-29.79
0.67,-0.57,-0.28,-62.13,-61.46,-22.37
0.73,-0.49,-0.49,-34.26,-52.51,-9.88
0.81,-0.39,-0.81,-4.43,-27.1,2.45
0.77,-0.38,-0.87,6.38,-12.26,9.2
0.68,-0.49,-0.76,17.82,24.88,21.7
0.58,-0.63,-0.53,9.65,43.13,13.18
0.52,-0.73,-0.39,14.61,64.0,11.95
0.55,-0.75,-0.36,19.78,51.11,11.34
0.55,-0.8,-0.24,25.83,31.93,7.35
0.51,-0.9,-0.06,17.63,10.73,-2.57
0.45,-0.97,0.08,-6.47,-17.82,-20.55
0.41,-0.94,0.18,-35.73,-22.02,-29.22
0.5,-0.8,0.12,-51.11,-21.7,-27.51
0.63,-0.64,-0.11,-64.0,-36.38,-20.99
0.72,-0.55,-0.24,-64.0,-64.0,-7.98
0.77,-0.47,-0.48,-49.74,-64.0,7.03
0.84,-0.36,-0.79,-13.53,-52.19,17.86
0.76,-0.36,-0.88,2.53,-28.6,26.94
0.64,-0.47,-0.82,14.19,11.98,36.32
0.52,-0.62,-0.58,10.49,37.32,28.09
0.45,-0.73,-0.42,13.67,62.96,23.03
0.48,-0.78,-0.34,18.66,53.7,18.16
0.51,-0.85,-0.24,19.38,26.58,10.56
0.51,-0.98,-0.07,6.88,-13.4,-5.14
0.46,-1.05,0.04,-20.06,-36.84,-20.55
0.46,-0.98,0.07,-42.52,-32.81,-26.93
0.54,-0.82,-0.06,-53.85,-34.36,-26.18
