ax,ay,az,gx,gy,gz
-0.0833, -0.3876, -0.8823, -0.7012, 4.9220, -0.3872
-0.0733, -0.3978, -0.8728, -0.2744, 6.1415, 0.5274
-0.0656, -0.3812, -0.8707, 0.0915, 4.7390, 1.9299
-0.0629, -0.3886, -0.8753, -1.0061, 1.2634, 1.9909
-0.0747, -0.3886, -0.8683, -1.3720, -0.8707, 1.5030
-0.0861, -0.3922, -0.8817, -0.4573, 0.2878, 1.6860
-0.0733, -0.3903, -0.8983, -0.2744, 1.6902, 1.3811
-0.0631, -0.3791, -0.8953, 0.8232, -0.2000, 1.7470
-0.0799, -0.3854, -0.8878, 2.7134, -2.3341, 0.8933
-0.0819, -0.3941, -0.8897, 4.3598, -2.2732, 1.6860
-0.0870, -0.3922, -0.9001, 5.3354, -1.6634, 1.6860
-0.0745, -0.3963, -0.8815, 5.8841, 0.1659, 1.9909
-0.0710, -0.4100, -0.8626, 4.1159, -2.9439, 1.4421
-0.0825, -0.3988, -0.8415, 2.7134, -1.2366, 1.5640
-0.0896, -0.3951, -0.8808, 2.7134, -0.9317, 2.4177
-0.0718, -0.3920, -0.8655, 1.8598, -2.7610, 3.3323
-0.0833, -0.4052, -0.8541, 1.7378, -2.2732, 2.9055
-0.0750, -0.3967, -0.8907, 1.3110, -7.4561, 2.2348
-0.0965, -0.3950, -0.9039, 3.5671, -11.9073, 1.8079
-0.0951, -0.4174, -0.8582, 3.0183, -8.7366, 2.1738
-0.0935, -0.4022, -0.8848, 3.2012, -8.5537, 2.4787
-0.0900, -0.3891, -0.8917, 5.1524, -15.9317, 2.2957
-0.1072, -0.4094, -0.8546, 5.2744, -24.5293, 1.3811
-0.0751, -0.4198, -0.8516, 2.4695, -24.5902, 3.2104
-0.1295, -0.4132, -0.8517, 0.0305, -26.7244, 1.6250
-0.1350, -0.4448, -0.7847, -4.6037, -29.5293, 2.1128
-0.1523, -0.4293, -0.8655, -3.7500, -31.4805, 3.3323
-0.1638, -0.4483, -0.8512, -5.1524, -33.3098, 1.6860
-0.1631, -0.4520, -0.8257, -6.5549, -36.4805, 1.5030
-0.2375, -0.4079, -0.8895, -6.0671, -32.2122, -1.8506
-0.2466, -0.4422, -0.8628, -7.2256, -19.7122, -1.8506
-0.2299, -0.4240, -0.8986, -7.2866, -8.5537, -1.3628
-0.2433, -0.4241, -0.8899, -7.0427, -11.4805, -5.9970
-0.2270, -0.4177, -0.9045, -6.1280, -1.9683, -6.1799
-0.2238, -0.3992, -0.9188, -3.7500, -0.5659, -5.9970
-0.2799, -0.3910, -0.9584, 0.6402, 8.1537, -8.4360
-0.1942, -0.4053, -0.8910, 1.2500, 13.2146, -4.3506
-0.1759, -0.3933, -0.8771, 1.3720, 21.3244, -5.0213
-0.2092, -0.4143, -0.8630, -0.0305, 21.8732, -5.9970
-0.1921, -0.3870, -0.9263, 0.8232, 20.6537, -5.9970
-0.1447, -0.4115, -0.8818, 1.6159, 20.2878, -3.5579
-0.1199, -0.4204, -0.8654, -0.4573, 17.9707, -2.7043
-0.1748, -0.3615, -0.9895, 4.4207, 12.6659, -5.4482
-0.2313, -0.4081, -0.9522, 9.7866, 13.7634, -7.5823
-0.1785, -0.4324, -0.9036, 11.6159, 24.1293, -6.1189
-0.1293, -0.4149, -0.9503, 14.5427, 15.2878, -10.5091
-0.1753, -0.4143, -0.9467, 19.6646, 3.5805, -16.1799
-0.2052, -0.4570, -0.9449, 24.8476, 15.4098, -17.8262
-0.1237, -0.4365, -0.9358, 30.1524, 23.3976, -18.6799
-0.0590, -0.4511, -0.8684, 33.4451, 7.7878, -20.2043
-0.0938, -0.4706, -0.8256, 32.8354, 5.2268, -20.3262
-0.0695, -0.4736, -0.8376, 31.9817, 2.6049, -19.3506
-0.0504, -0.4751, -0.8691, 36.6159, -6.0537, -18.0091
-0.0390, -0.5323, -0.7896, 37.7744, -11.9683, -16.5457
-0.1030, -0.5217, -0.7958, 38.3232, -9.6512, -17.5213
-0.1104, -0.5244, -0.8605, 41.1280, -12.4561, -20.8140
-0.1354, -0.5536, -0.8000, 41.4939, -17.0293, -25.6921
-0.1079, -0.5534, -0.7759, 39.0549, -21.4195, -32.2165
-0.1254, -0.5022, -0.8014, 40.6402, -15.5049, -35.2043
-0.1015, -0.5476, -0.6995, 37.5915, 3.5195, -32.7043
0.1492, -0.5291, -0.6530, 32.2866, 11.9951, -18.4970
0.3818, -0.5445, -0.5764, 17.1646, 22.0561, 16.1372
0.3030, -0.5974, -0.6234, -6.1890, 18.2756, 42.6006
0.1783, -0.6225, -0.6272, -29.7256, -4.2854, 51.1982
-0.0391, -0.6100, -0.8063, -37.2866, -34.0415, 54.4299
-0.6187, -0.6134, -0.9584, -25.6402, -53.1878, 23.3933
-0.8689, -0.6376, -0.9903, -9.4207, -42.7610, -18.0091
-0.6619, -0.5441, -0.8785, 4.1159, 2.8488, -45.4482
-0.2747, -0.5433, -0.8340, 16.7378, 23.3976, -62.0945
0.1996, -0.4449, -0.7668, 25.7622, 42.6049, -44.4116
0.5460, -0.5045, -0.6345, 20.0915, 38.3366, -9.6555
0.5104, -0.5145, -0.6158, 4.2988, 25.8366, 31.4421
0.1311, -0.5866, -0.6851, -11.7378, 17.6049, 46.3201
-0.0557, -0.6250, -0.7575, -23.5671, 10.7146, 51.6250
-0.4656, -0.6368, -0.9988, -12.3476, -40.3829, 27.2348
-0.9229, -0.6826, -0.9834, 11.5549, -48.9195, -27.4604
-0.6201, -0.6485, -0.7695, 21.4939, 27.9098, -53.1921
0.1348, -0.5278, -0.7052, 25.6402, 48.5195, -53.3750
0.3537, -0.4715, -0.6224, 28.9939, 28.8244, -31.7896
0.4305, -0.4475, -0.6167, 22.4085, 7.4220, -4.7774
0.3936, -0.5271, -0.5718, 5.0915, 27.3000, 32.6616
0.2161, -0.5863, -0.6165, -14.2378, 21.7512, 54.5518
0.0464, -0.6618, -0.7987, -25.3354, -0.9927, 60.8933
-0.4400, -0.7193, -0.9156, -15.1524, -42.5171, 36.4421
-0.8870, -0.7155, -0.9878, 8.1402, -57.0902, -19.4116
-0.6546, -0.6810, -0.8457, 20.6402, 21.9951, -48.6189
-0.0167, -0.6268, -0.7563, 30.3354, 42.0561, -59.5945
0.4567, -0.4823, -0.6105, 34.1159, 38.7634, -30.3872
0.5439, -0.5044, -0.5112, 23.6890, 7.4220, -4.4116
0.4570, -0.5963, -0.4802, 1.8598, 14.6780, 37.7835
0.2330, -0.5961, -0.5644, -20.7012, 7.6049, 53.8201
0.0558, -0.6613, -0.7325, -34.5427, -1.3585, 63.1494
-0.4041, -0.6922, -0.8830, -24.3598, -46.5415, 42.1738
-0.9740, -0.7330, -1.0729, 5.6402, -73.4317, -18.8628
-0.7749, -0.6855, -0.8377, 20.7012, 11.8732, -48.4969
-0.0407, -0.6757, -0.7053, 25.0305, 48.2756, -62.2165
0.5155, -0.4884, -0.6318, 27.1646, 50.6537, -28.6799
0.5515, -0.5307, -0.5204, 12.9573, -0.5659, -11.6067
0.3905, -0.5647, -0.5270, -9.3598, 14.9829, 29.3079
0.1471, -0.6015, -0.5701, -29.6646, 21.7512, 47.0518
0.0844, -0.6658, -0.7213, -39.9695, 17.0561, 59.4909
-0.3887, -0.7263, -0.8499, -27.1037, -31.4805, 38.5762
-0.9037, -0.7132, -1.0623, 1.9817, -52.3951, -14.8994
-0.7338, -0.6577, -0.8751, 19.9085, 20.5927, -45.0823
-0.0819, -0.6577, -0.7427, 29.6037, 48.7024, -60.7530
0.4960, -0.5059, -0.5988, 31.2500, 51.8122, -32.0335
0.5321, -0.5286, -0.4946, 19.6037, 10.8366, -12.0945
0.5035, -0.5818, -0.4903, -2.6524, 15.3488, 28.7591
0.2818, -0.6154, -0.5353, -24.6646, 12.7878, 49.6738
0.1167, -0.6511, -0.6854, -35.0915, 4.1293, 63.3323
-0.3141, -0.6776, -0.8748, -22.5915, -38.6756, 48.8201
-0.8737, -0.6951, -1.0896, 2.7744, -65.6268, -4.4726
-0.8319, -0.6528, -0.8903, 21.3720, -6.7854, -43.5579
-0.1865, -0.6870, -0.7357, 26.0671, 34.1293, -63.9848
0.4462, -0.5197, -0.6569, 29.3598, 42.4220, -40.9360
0.5295, -0.5497, -0.5559, 19.8476, 7.8488, -24.7774
0.4910, -0.5551, -0.5010, 0.2744, 8.3366, 16.5030
0.2301, -0.6134, -0.5168, -18.9939, 19.9220, 42.9665
0.2203, -0.6199, -0.5953, -36.9817, 15.6537, 64.3079
-0.0932, -0.6651, -0.7500, -32.1646, -19.6512, 61.0762
-0.5927, -0.6987, -0.9644, -17.1646, -62.6390, 23.3933
-0.9685, -0.7026, -1.0272, 10.5793, -58.3098, -29.2287
-0.5498, -0.6682, -0.8371, 20.0305, 26.4463, -51.2409
0.1192, -0.6447, -0.7323, 24.4207, 36.6293, -61.6677
0.5103, -0.5314, -0.5854, 28.6280, 38.9463, -26.4848
0.5783, -0.5481, -0.5130, 12.8963, 6.7512, 0.1006
0.3537, -0.6305, -0.4931, -10.0915, 17.7878, 38.2104
0.2339, -0.6140, -0.5341, -30.6402, 21.9951, 61.1372
0.0292, -0.6209, -0.7558, -35.0305, -17.4561, 60.2835
-0.5254, -0.7039, -0.9181, -22.2866, -63.8585, 34.3079
-1.0402, -0.7429, -1.0256, 6.6159, -68.3098, -25.6921
-0.6661, -0.6909, -0.8444, 18.2622, 17.0561, -50.3872
0.0082, -0.6666, -0.7625, 24.5427, 30.6537, -66.3018
0.3929, -0.5683, -0.6906, 31.9817, 30.2878, -42.7043
0.3424, -0.5969, -0.6054, 29.7256, -3.1268, -31.9116
0.3642, -0.5424, -0.4758, 19.0549, 11.9951, 4.5518
0.3723, -0.5764, -0.4149, -2.2256, 31.7512, 41.8689
0.2395, -0.6103, -0.4398, -29.5427, 15.5927, 58.2713
0.1058, -0.6658, -0.6622, -42.3476, -19.2244, 65.3445
-0.3474, -0.7282, -0.8101, -38.7500, -64.2244, 44.7957
-0.8966, -0.7010, -1.0991, -11.3110, -91.4195, -1.3018
-1.0028, -0.6482, -1.0731, 17.8354, -20.0780, -43.9238
-0.2846, -0.6840, -0.7946, 31.1280, 45.7146, -62.5213
0.4510, -0.5205, -0.7371, 43.5671, 56.5683, -39.8994
0.4752, -0.6135, -0.4519, 30.5183, 16.3854, -26.9726
0.4953, -0.5795, -0.4402, 8.0183, 11.7512, 14.5518
0.2757, -0.6734, -0.4419, -18.6280, 23.6415, 42.6616
0.1868, -0.6522, -0.5594, -36.0061, 20.8366, 65.2226
-0.0629, -0.6912, -0.7323, -33.8110, -27.3951, 60.5884
-0.6370, -0.6970, -0.9620, -18.2622, -76.1146, 24.7348
-1.0981, -0.7071, -1.0530, 10.5793, -67.7000, -37.5823
-0.6596, -0.6661, -0.8987, 25.0305, 30.9585, -59.7165
0.1868, -0.5832, -0.7535, 33.5061, 53.7634, -64.4116
0.4623, -0.5932, -0.5120, 35.9451, 46.4463, -36.4848
0.5124, -0.5676, -0.5270, 20.1524, 5.5317, -9.5335
0.3937, -0.6496, -0.4261, -3.8720, 23.9463, 27.2348
0.2238, -0.6750, -0.4346, -26.6159, 28.5195, 52.2957
0.0754, -0.6764, -0.6711, -36.2500, -3.0659, 60.5884
-0.3444, -0.7319, -0.8183, -27.8354, -45.1390, 41.5031
-0.8108, -0.6950, -0.9521, -8.5061, -71.7244, -7.6433
-0.8274, -0.6900, -0.9567, 13.7500, -16.1146, -39.3506
-0.3030, -0.6993, -0.7697, 25.0305, 31.6293, -63.9238
0.1908, -0.6170, -0.6796, 38.1402, 36.9951, -56.2409
0.4650, -0.5597, -0.5056, 33.3232, 24.3122, -33.1921
0.5663, -0.5687, -0.4042, 12.9573, 18.0317, 6.0152
0.3424, -0.6694, -0.3546, -14.2378, 20.5927, 39.1250
0.1990, -0.6373, -0.4943, -38.5671, 15.7756, 60.8933
-0.0034, -0.6782, -0.7061, -43.3841, -21.8463, 59.5518
-0.5067, -0.7412, -0.9107, -28.8720, -68.5537, 30.3445
-0.9473, -0.7127, -1.0604, -2.7134, -74.2854, -17.9482
-0.7216, -0.6510, -0.9297, 15.5793, 17.3000, -42.0945
-0.0678, -0.6581, -0.7638, 27.7744, 50.8366, -57.1555
0.3348, -0.5911, -0.6227, 31.9817, 39.0073, -41.6677
0.5083, -0.5335, -0.4565, 21.5549, 22.4220, -8.3140
0.4524, -0.5894, -0.3956, -3.9329, 16.9951, 27.3567
0.1947, -0.6706, -0.4323, -28.0793, 16.3854, 48.5762
0.1419, -0.6942, -0.6254, -41.2500, 9.1902, 64.0031
-0.2116, -0.7233, -0.8159, -33.2622, -41.8463, 52.3567
-0.8140, -0.7341, -1.0892, -7.9573, -81.2976, 2.6616
-1.0376, -0.6693, -1.0274, 21.8598, -20.0171, -43.8628
-0.3488, -0.6041, -0.7422, 32.9573, 54.0683, -63.6189
0.3491, -0.5380, -0.6806, 39.9695, 60.6537, -51.4238
0.4634, -0.5890, -0.4465, 28.3841, 22.3610, -37.2165
0.5262, -0.5482, -0.4275, 7.1646, 4.2512, 1.6250
0.3638, -0.6378, -0.3958, -17.0427, 14.5561, 37.9055
0.1963, -0.6688, -0.5012, -38.0793, 15.8976, 60.3445
-0.0114, -0.7118, -0.7335, -40.1524, -17.0293, 63.0884
-0.5196, -0.7285, -0.8787, -28.3841, -65.7488, 29.7957
-1.0256, -0.7399, -1.0406, 1.2500, -67.4561, -22.8262
-0.6979, -0.6430, -0.9191, 20.1524, 22.4220, -46.0579
-0.0220, -0.7050, -0.7489, 28.6890, 49.3732, -56.6677
0.4180, -0.5731, -0.6273, 35.1524, 47.2390, -34.7774
0.4160, -0.5700, -0.5069, 25.3354, 5.1049, -24.5945
0.4500, -0.5819, -0.4166, 1.5549, 11.5683, 10.5274
0.3358, -0.6835, -0.4138, -25.7622, 22.3000, 42.9055
0.2690, -0.6820, -0.5424, -48.3841, 15.2268, 64.6128
-0.0482, -0.7050, -0.7765, -43.5671, -35.6268, 61.2591
-0.7006, -0.6765, -1.0173, -21.7988, -85.9317, 20.1616
-1.2073, -0.6738, -1.1069, 14.9695, -70.4439, -40.3262
-0.6494, -0.6624, -0.8433, 30.0915, 49.8000, -58.0091
0.2903, -0.5972, -0.7193, 38.3232, 66.8732, -54.7165
0.5250, -0.5715, -0.5474, 36.8598, 36.2024, -31.4848
0.4858, -0.5826, -0.4866, 17.0427, -4.7122, -8.1921
0.3660, -0.6520, -0.4150, -12.4085, 14.9220, 26.5640
0.2513, -0.7215, -0.4255, -36.7378, 23.2146, 51.3201
0.1271, -0.6867, -0.6899, -42.9573, -1.2976, 62.2957
-0.3700, -0.7075, -0.8675, -29.4207, -53.6756, 40.5884
-0.9617, -0.6868, -1.0996, 4.9085, -84.4683, -16.4848
-0.8809, -0.6763, -0.8738, 26.4329, 9.6780, -42.1555
-0.1607, -0.7071, -0.6955, 32.0427, 51.9951, -57.5823
0.4770, -0.5587, -0.6068, 34.0549, 44.8610, -37.8262
0.4775, -0.6106, -0.5173, 19.5427, -7.7000, -27.9482
0.4657, -0.5958, -0.4585, -3.2622, -1.1756, 11.0762
0.2644, -0.6543, -0.4861, -23.6280, 13.3976, 38.2713
0.1869, -0.6265, -0.5825, -38.0793, 8.6415, 59.4299
-0.2017, -0.7090, -0.7902, -30.8841, -48.4317, 49.9787
-0.8262, -0.7022, -0.9799, -10.8841, -88.6756, -1.1189
-0.9832, -0.6777, -0.9986, 17.8963, -41.9683, -41.4848
-0.4692, -0.6502, -0.7964, 29.4817, 38.4585, -59.8994
0.2919, -0.5878, -0.7239, 40.0915, 54.4951, -50.6311
0.5643, -0.5940, -0.5101, 33.0183, 26.0805, -28.8628
0.6235, -0.6267, -0.4197, 10.2134, 5.8366, 8.5762
0.3700, -0.7287, -0.3909, -17.4695, 13.3976, 41.9299
0.2121, -0.6709, -0.4929, -41.9817, 21.5683, 64.4299
-0.0593, -0.6753, -0.7709, -40.0915, -27.3341, 62.9665
-0.7428, -0.6619, -0.9715, -20.5793, -85.2000, 16.6860
-1.1506, -0.7053, -1.0632, 17.2866, -70.8098, -40.2652
-0.5620, -0.6716, -0.7612, 29.3598, 50.9585, -53.7409
0.2889, -0.5996, -0.7038, 34.9695, 53.7634, -56.9116
0.5016, -0.6519, -0.4900, 30.7012, 29.2512, -26.5457
0.4890, -0.6632, -0.4532, 7.1646, -2.6390, -1.0579
0.3060, -0.6909, -0.4799, -17.7134, 12.2390, 29.9787
0.1713, -0.6503, -0.5272, -37.1037, 20.8366, 49.8567
-0.0492, -0.6014, -0.8347, -33.9329, -14.5293, 51.0152
-0.7365, -0.6436, -0.9288, -13.2622, -72.5171, 13.2713
-1.0877, -0.7155, -0.9716, 16.9817, -54.4683, -41.0579
-0.5487, -0.7001, -0.7420, 24.1768, 41.7512, -55.6921
0.2537, -0.6379, -0.7438, 29.5427, 41.5683, -61.0579
0.5483, -0.6793, -0.5251, 25.8232, 26.3854, -29.9604
0.6070, -0.6845, -0.4442, 6.1280, 4.0683, 1.8689
0.3252, -0.7688, -0.4672, -16.3720, 9.9829, 30.1006
0.1971, -0.6711, -0.4976, -34.5427, 24.0073, 49.7957
-0.0181, -0.6782, -0.7629, -34.6646, -10.6268, 48.9421
-0.6320, -0.6474, -0.9085, -17.9573, -71.0537, 5.0396
-0.9928, -0.6892, -0.9802, 11.6768, -74.4073, -43.3140
-0.5925, -0.6576, -0.7360, 24.2378, 20.4707, -56.6067
0.1012, -0.6578, -0.6551, 28.4451, 32.4829, -67.6433
0.4582, -0.6248, -0.4896, 26.4329, 29.8000, -34.6555
0.5796, -0.6695, -0.4266, 5.8232, -6.4195, -12.0945
0.3987, -0.6998, -0.4708, -15.2134, -9.6512, 20.2226
0.1237, -0.6474, -0.5196, -35.1524, 2.9707, 36.9909
0.0474, -0.6150, -0.7038, -47.7134, -0.4439, 49.8567
-0.3967, -0.6083, -0.8250, -40.5793, -58.4317, 23.2104
-0.9589, -0.7152, -1.0291, -14.7866, -112.5171, -37.2165
-0.9351, -0.6593, -0.9278, 10.7622, -31.1146, -63.4969
-0.2147, -0.6867, -0.7590, 22.7134, 35.1049, -78.4360
0.4197, -0.5542, -0.6683, 38.6890, 63.4585, -46.6677
0.6090, -0.6068, -0.4860, 27.2866, 26.3244, -29.6555
0.6988, -0.6662, -0.3983, -0.0305, 20.0439, 21.3811
0.3483, -0.7334, -0.4456, -26.3720, 13.3366, 44.3689
0.0976, -0.6538, -0.7308, -37.5915, 1.1415, 60.7713
-0.3899, -0.6723, -0.8804, -26.1890, -57.2122, 33.9421
-1.0649, -0.6981, -1.0058, 3.7500, -111.1756, -29.4726
-0.9008, -0.6815, -0.7711, 19.7866, -8.0049, -58.6189
-0.1591, -0.6627, -0.6483, 20.3354, 54.9829, -67.3994
0.4610, -0.5532, -0.6732, 26.4329, 48.2146, -49.5335
0.5632, -0.6247, -0.4919, 22.2866, 17.6659, -21.8506
0.5234, -0.6553, -0.5336, 3.5671, -0.6268, 10.3445
0.2338, -0.6602, -0.5584, -13.2622, 4.8000, 25.1006
0.1495, -0.6889, -0.6083, -26.8598, 8.1537, 42.6616
-0.2225, -0.7736, -0.7469, -15.7622, -35.0171, 28.4543
-0.7259, -0.7929, -0.9871, 5.7622, -84.3463, -26.6067
-0.8033, -0.7348, -0.8367, 31.1280, -34.3463, -63.6799
-0.2942, -0.7319, -0.6509, 40.0305, 27.9707, -83.4360
0.4398, -0.5618, -0.6528, 46.7378, 46.1415, -68.7409
0.5694, -0.6420, -0.4617, 42.4085, 19.1902, -45.9969
0.7751, -0.6134, -0.4186, 25.2134, 10.1659, -0.2043
0.5216, -0.7255, -0.3862, 3.3841, 16.2024, 30.8323
0.3050, -0.7056, -0.4932, -18.5671, 13.0317, 50.6494
-0.0089, -0.7699, -0.6561, -23.0183, -27.2122, 46.8689
-0.5884, -0.7972, -0.8502, -12.0427, -79.1634, 3.8811
-0.9297, -0.7069, -0.8854, 12.6524, -71.6634, -56.0579
-0.4930, -0.7449, -0.6880, 23.7500, 23.2146, -66.9726
0.3511, -0.6137, -0.6299, 34.4207, 63.6415, -58.0701
0.6521, -0.6676, -0.4088, 36.4329, 48.8244, -26.8506
0.8027, -0.6571, -0.3617, 17.7744, 8.7634, 11.9299
0.5275, -0.7434, -0.3244, -8.6890, 7.5439, 46.6250
0.2931, -0.6948, -0.3876, -37.5305, 13.2146, 62.6006
0.0688, -0.7210, -0.6246, -41.4939, -16.1146, 62.9055
-0.4726, -0.7057, -0.8596, -27.8963, -78.3098, 28.2104
-1.0130, -0.7810, -0.9088, 5.4573, -96.8463, -34.2896
-0.6628, -0.7539, -0.7325, 21.4939, 11.4463, -49.4726
0.1064, -0.7522, -0.6282, 28.8110, 55.4707, -59.0457
0.6373, -0.6777, -0.5115, 29.7256, 61.5683, -20.5091
0.7401, -0.7293, -0.4200, 9.1159, 7.9707, -3.8628
0.5837, -0.7243, -0.4191, -13.6890, 11.6902, 45.8323
0.3217, -0.6836, -0.4680, -36.5549, 22.2390, 62.9665
0.0792, -0.6940, -0.6658, -44.1159, 0.7756, 69.1250
-0.4683, -0.6700, -0.7974, -32.2256, -68.1878, 38.5762
-1.1254, -0.7699, -0.8943, 1.4939, -105.8707, -29.7774
-0.7973, -0.7551, -0.6967, 14.4207, 7.1171, -51.9116
0.0373, -0.7240, -0.6396, 20.3963, 50.7756, -63.8628
0.5781, -0.6633, -0.5583, 23.9939, 61.3854, -26.7287
0.6990, -0.7580, -0.4606, 10.2744, 9.4341, -18.6189
0.6905, -0.7419, -0.4545, -12.1646, 7.8488, 31.0152
0.4113, -0.7713, -0.4497, -34.7256, 22.2390, 54.3079
0.2131, -0.7435, -0.5460, -47.5915, 22.9098, 70.3445
-0.2123, -0.6931, -0.7242, -39.2988, -35.4439, 50.4055
-0.9051, -0.7170, -0.9502, -11.9207, -100.5049, -8.9848
-1.0177, -0.6922, -0.7789, 12.4085, -24.1024, -47.8872
-0.2859, -0.6992, -0.5878, 17.5305, 58.2146, -61.7896
0.5331, -0.5632, -0.5428, 22.6524, 75.8976, -32.8872
0.6547, -0.6765, -0.4277, 11.7988, 19.6171, -20.6311
0.7216, -0.6541, -0.4504, -7.7134, 0.1659, 25.6494
0.3997, -0.7072, -0.5077, -26.1890, 13.0317, 55.9543
0.1852, -0.6538, -0.6457, -40.8841, 18.5195, 75.5884
-0.2344, -0.6808, -0.7836, -32.6524, -29.9561, 57.9055
-0.8896, -0.6697, -0.9827, -7.3476, -101.9683, -0.9970
-1.0300, -0.7269, -0.8195, 14.8476, -40.3220, -39.2287
-0.3237, -0.7069, -0.6356, 14.1768, 49.0073, -57.2774
0.4952, -0.5555, -0.6398, 16.3720, 61.1415, -36.4848
0.5779, -0.6942, -0.5115, 10.1524, 17.9098, -19.3506
0.6588, -0.7122, -0.5001, -6.0671, 9.6171, 21.3811
0.4065, -0.7710, -0.4991, -25.1524, 22.6049, 55.4055
0.1782, -0.6649, -0.6249, -39.2378, 25.2878, 75.5274
-0.1819, -0.6457, -0.7579, -33.8110, -20.8098, 60.4665
-0.8309, -0.6105, -0.9417, -14.2378, -87.4561, 8.4543
-1.0474, -0.6495, -0.8212, 8.2012, -48.0659, -37.2165
-0.4074, -0.6376, -0.6420, 8.3232, 37.6659, -50.3262
0.3707, -0.5733, -0.6557, 10.8232, 47.3000, -38.4360
0.5394, -0.6652, -0.5438, 7.3476, 19.9220, -12.6433
0.6127, -0.6982, -0.5682, -5.5183, 6.3244, 24.9177
0.3468, -0.7641, -0.5854, -21.4939, 20.3488, 58.3933
0.1871, -0.6897, -0.6443, -34.7256, 35.3488, 78.6982
-0.1893, -0.6104, -0.8616, -29.8476, -3.5537, 69.3689
-0.8670, -0.5916, -1.0148, -10.0305, -82.0293, 6.0152
-1.1253, -0.6530, -0.8889, 13.8720, -43.6756, -45.5701
-0.4632, -0.6706, -0.6794, 14.3598, 42.4220, -61.4238
0.3835, -0.5257, -0.6637, 21.9207, 74.1902, -38.6799
0.5632, -0.6272, -0.5366, 17.2256, 38.9463, -22.7652
0.7013, -0.6393, -0.4900, -1.2500, 19.6780, 20.7713
0.4690, -0.7066, -0.4938, -23.3232, 22.9098, 55.3445
0.2427, -0.6537, -0.5315, -45.5793, 26.0805, 78.3323
-0.1083, -0.6409, -0.7422, -43.3841, -14.1634, 74.3689
-0.8178, -0.5695, -1.0292, -22.2866, -91.4195, 18.9421
-1.2412, -0.6280, -1.0014, 10.7622, -79.6512, -43.8018
-0.6552, -0.6339, -0.7410, 19.7256, 40.4098, -57.7043
0.3121, -0.5274, -0.7490, 29.9695, 66.5073, -53.8018
0.5673, -0.6531, -0.4881, 30.7622, 38.9463, -22.8872
0.6722, -0.6659, -0.4979, 15.2744, 11.2634, 13.6982
0.4445, -0.7249, -0.4954, -6.3720, 16.3854, 49.3079
0.2258, -0.6983, -0.5122, -29.8476, 24.9220, 70.6494
0.0212, -0.6688, -0.7023, -32.8963, -3.1878, 77.1128
-0.5222, -0.5964, -0.8998, -23.0793, -68.4927, 39.2470
-1.1954, -0.6583, -1.0060, 5.8841, -102.8220, -26.6677
-0.9512, -0.6075, -0.8125, 23.8720, -1.2976, -53.6799
-0.1600, -0.6598, -0.6797, 30.5183, 37.0561, -70.2043
0.3784, -0.5933, -0.6133, 36.0061, 50.4707, -38.1921
0.5389, -0.6544, -0.5339, 26.1890, 11.0805, -24.1067
0.5765, -0.6652, -0.5275, 4.2988, 11.0805, 19.1860
0.3698, -0.7335, -0.4936, -18.8720, 17.9707, 46.3811
0.2125, -0.6920, -0.5579, -38.8110, 14.2512, 66.2591
-0.1779, -0.6718, -0.7055, -34.1768, -36.1756, 58.3933
-0.8174, -0.6195, -0.9346, -7.0427, -110.1390, 8.0274
-1.2611, -0.6876, -0.8871, 21.2500, -81.1146, -46.9726
-0.6196, -0.6360, -0.7019, 27.4695, 41.8732, -57.5823
0.2417, -0.6229, -0.6110, 29.6646, 48.3976, -55.5701
0.5378, -0.6307, -0.5248, 25.0915, 33.8854, -20.0823
0.4957, -0.6687, -0.5529, 8.5671, -9.0415, -1.1189
0.2759, -0.7319, -0.5657, -9.8476, 5.0439, 33.9421
0.1024, -0.6928, -0.5613, -28.4451, 23.0927, 52.7835
0.0273, -0.6629, -0.7415, -40.2134, -13.9195, 50.4055
-0.5051, -0.6680, -0.8635, -28.3841, -66.4195, 26.2591
-1.0643, -0.6329, -0.9764, -7.4085, -78.6756, -25.5091
-0.8877, -0.6248, -0.8976, 9.2988, 2.3610, -48.1921
-0.2736, -0.6499, -0.7022, 18.7500, 45.6537, -64.1677
0.3756, -0.5651, -0.6515, 25.2134, 67.8488, -28.4360
0.5367, -0.6694, -0.4957, 16.7378, 30.1659, -14.8994
0.5741, -0.6903, -0.4871, -1.0671, 20.4098, 26.7470
0.2384, -0.7440, -0.4785, -21.4329, 19.0073, 46.5640
0.0672, -0.6977, -0.6020, -36.7378, 12.6049, 61.3811
-0.3051, -0.6305, -0.7949, -27.7744, -43.9805, 44.4299
-0.9601, -0.6845, -0.9232, -4.2988, -95.8707, -9.3506
-1.0464, -0.6477, -0.8526, 17.9573, -30.7488, -48.0701
-0.4050, -0.6858, -0.6858, 22.9573, 49.8000, -59.5945
0.3402, -0.5639, -0.6982, 31.5549, 54.6171, -46.3628
0.4566, -0.6983, -0.5008, 26.4939, 22.7268, -28.1311
0.5230, -0.7001, -0.4665, 7.0427, 8.4585, 6.6250
0.3445, -0.7212, -0.4864, -15.8232, 17.9098, 34.2470
0.1693, -0.6684, -0.4998, -38.0183, 18.1537, 53.5762
-0.0213, -0.6073, -0.7035, -42.6524, -18.5537, 53.5762
-0.5794, -0.5945, -0.9025, -29.4817, -85.3220, 22.4787
-1.1966, -0.6491, -0.9838, 2.3476, -106.7244, -37.8262
-0.8327, -0.6226, -0.8325, 18.2622, 20.6537, -54.5945
-0.0005, -0.6273, -0.7568, 25.2744, 61.5683, -61.4238
0.5591, -0.6168, -0.6041, 32.5915, 65.6537, -18.1921
0.6448, -0.6741, -0.5004, 20.2134, 21.3854, 2.5396
0.4371, -0.7385, -0.4799, -1.3110, 18.8244, 41.6860
0.1312, -0.7180, -0.4888, -26.0671, 18.1537, 57.6616
-0.0910, -0.6539, -0.7058, -36.2500, -17.2732, 53.5762
-0.5868, -0.6367, -0.8420, -26.6159, -71.1756, 22.1128
-1.0859, -0.6183, -0.9553, 1.9817, -84.0415, -31.9726
-0.7301, -0.5821, -0.8077, 16.1280, 15.7756, -44.8384
-0.0837, -0.6096, -0.7009, 25.2744, 45.1659, -53.4969
0.4567, -0.5940, -0.5883, 26.1890, 35.1659, -23.0701
0.4147, -0.7130, -0.4903, 14.9695, 5.9585, -3.2530
0.4154, -0.7021, -0.5441, -5.9451, 9.8610, 28.0884
0.1851, -0.7195, -0.5385, -24.3598, 18.6415, 47.4177
0.0663, -0.7030, -0.5920, -40.0305, 6.1415, 57.4177
-0.3501, -0.5958, -0.8614, -28.8110, -59.4683, 39.5518
-1.0603, -0.6384, -0.9830, -0.8232, -98.6756, -14.5335
-0.9901, -0.5950, -0.8695, 19.6037, -5.2610, -44.6555
-0.3246, -0.6605, -0.7016, 28.7500, 58.3366, -53.8018
0.4462, -0.5589, -0.6516, 34.2378, 54.6780, -29.1677
0.4543, -0.6865, -0.4880, 24.6646, 14.0073, -12.5213
0.3828, -0.7175, -0.5145, 3.5671, -1.9683, 13.6982
0.1407, -0.7648, -0.5518, -13.8720, 19.3122, 35.6494
0.0546, -0.7349, -0.5448, -29.6646, 30.7756, 51.4421
-0.1546, -0.6456, -0.7869, -24.9085, -28.1268, 41.8079
-0.8759, -0.6547, -0.9310, -1.0061, -82.2732, -2.2774
-1.0817, -0.5365, -0.8995, 22.2866, -38.7366, -51.9116
-0.4600, -0.6898, -0.6651, 25.7622, 36.2024, -67.2774
0.3646, -0.5649, -0.6207, 31.6768, 61.5683, -45.9360
0.6284, -0.7121, -0.4449, 22.6524, 32.7878, -18.1921
0.7000, -0.7215, -0.4423, -0.2134, 14.1902, 25.3445
0.3014, -0.7869, -0.4426, -26.4939, 11.9341, 48.8811
0.0763, -0.6918, -0.5910, -46.7988, 10.8366, 66.5640
-0.3630, -0.6100, -0.7997, -37.7744, -39.9561, 52.0518
-1.0884, -0.5932, -1.0022, -6.7988, -99.4683, -6.8506
-1.1465, -0.6091, -0.8855, 21.3720, -29.8341, -53.6799
-0.3696, -0.6826, -0.6551, 26.4329, 45.7756, -66.7287
0.4020, -0.5584, -0.6761, 31.7378, 64.3732, -38.4969
0.4860, -0.7393, -0.4843, 22.7744, 15.5927, -25.3872
0.5531, -0.7166, -0.4573, 2.8963, 9.6780, 15.2835
0.3601, -0.7850, -0.4648, -20.3963, 19.3732, 42.7835
0.1456, -0.7083, -0.5117, -39.7866, 22.4220, 65.3445
-0.1477, -0.6140, -0.7449, -38.2012, -20.6268, 57.2957
-0.8228, -0.6117, -0.9419, -15.9451, -88.6146, 12.8445
-1.2403, -0.6338, -0.9614, 18.4451, -75.0171, -46.9726
-0.6411, -0.6694, -0.7377, 28.0183, 40.9585, -57.2165
0.3187, -0.6071, -0.6809, 35.6402, 58.3976, -52.0945
0.5470, -0.6846, -0.4884, 29.7256, 28.1537, -21.1799
0.5293, -0.7175, -0.4376, 8.5061, -1.1756, 3.8201
0.3805, -0.7615, -0.4549, -17.5305, 15.7146, 38.2104
0.2146, -0.6891, -0.5122, -39.1159, 18.6415, 60.7713
-0.0603, -0.6079, -0.7123, -42.4085, -5.8707, 64.7348
-0.6251, -0.5965, -0.8979, -27.4085, -69.8951, 31.8079
-1.3229, -0.6412, -1.0536, 10.1524, -102.3341, -37.5213
-0.9263, -0.6651, -0.7909, 27.7134, 26.5073, -55.8140
0.0735, -0.6668, -0.7020, 33.5061, 53.1537, -71.3628
0.4579, -0.6869, -0.5143, 35.0915, 47.3000, -36.4848
0.4310, -0.7359, -0.5262, 18.5061, -2.6390, -34.2896
0.4813, -0.7239, -0.4460, -5.4573, 22.0561, 12.0518
0.3366, -0.7160, -0.4687, -23.5061, 31.2024, 45.6494
0.1633, -0.6716, -0.5062, -41.0061, 23.8244, 65.1616
-0.1777, -0.5901, -0.7283, -36.5549, -18.6146, 60.4665
-0.7826, -0.5909, -0.9216, -19.6037, -80.8707, 16.0762
-1.2250, -0.6462, -0.9532, 14.3598, -82.4561, -40.8140
-0.7099, -0.6613, -0.7055, 23.1402, 32.8488, -53.1311
0.0963, -0.6746, -0.6508, 26.8598, 42.7268, -65.2043
0.4723, -0.6803, -0.5190, 24.4817, 38.8854, -29.3506
0.5376, -0.7202, -0.5276, 9.3598, 3.7024, -6.7896
0.4698, -0.7802, -0.4912, -10.7622, 19.4341, 34.4299
0.2292, -0.7402, -0.4473, -29.5427, 28.8854, 60.6494
0.0238, -0.6280, -0.6700, -38.3841, 0.5927, 66.4421
-0.5180, -0.6269, -0.7850, -31.1890, -58.6756, 39.7957
-1.2139, -0.6298, -0.9839, -0.0915, -95.5659, -23.1311
-0.9882, -0.6241, -0.8459, 18.5061, 4.5561, -50.1433
-0.2372, -0.6079, -0.6968, 27.8354, 54.1902, -62.7652
0.5082, -0.6002, -0.6082, 31.7988, 54.3122, -35.7530
0.4996, -0.7460, -0.4536, 21.0061, 8.2756, -15.7530
0.4943, -0.7104, -0.4825, -1.0671, 10.2268, 25.7713
0.2333, -0.7441, -0.4538, -23.8110, 15.8976, 46.9299
0.1269, -0.6833, -0.5470, -41.1280, 13.2146, 67.3567
-0.2901, -0.6252, -0.6760, -36.7378, -38.1268, 56.0762
-0.9777, -0.6171, -0.9689, -16.1890, -96.1756, 2.1738
-1.2381, -0.6022, -0.9716, 15.4573, -61.1756, -51.8506
-0.5797, -0.6559, -0.7612, 25.9451, 49.1293, -65.5701
0.3658, -0.6060, -0.6498, 30.9451, 69.7390, -45.3872
0.6023, -0.7118, -0.4623, 25.0915, 41.9341, -19.5945
0.6055, -0.7812, -0.4756, 2.2866, 5.7146, 7.2348
0.3623, -0.7793, -0.4584, -20.9451, 16.8122, 39.9787
0.1237, -0.6841, -0.5025, -40.8232, 10.5317, 60.0396
-0.2501, -0.6275, -0.7347, -36.9207, -28.6756, 53.5762
-0.8304, -0.6226, -0.8932, -17.7134, -78.8585, 8.6372
-1.0988, -0.5765, -0.9311, 9.4207, -54.2854, -40.0823
-0.5135, -0.5930, -0.7485, 21.0061, 38.0927, -49.7165
0.2059, -0.6216, -0.5912, 26.2500, 40.2878, -47.1555
0.4383, -0.6331, -0.5344, 22.6524, 29.8610, -14.0457
0.4613, -0.7166, -0.4645, 3.3232, 6.2634, 7.3567
0.2818, -0.7895, -0.5245, -15.7622, 11.4463, 33.4543
0.1142, -0.7180, -0.5830, -31.1890, 13.2146, 51.0762
-0.0350, -0.7055, -0.7020, -36.9207, -8.3098, 54.9177
-0.5535, -0.6461, -0.8476, -20.8232, -50.0171, 33.8201
-1.1274, -0.5691, -1.0233, 8.9939, -84.2854, -33.3750
-0.9263, -0.6173, -0.8040, 23.4451, 11.3244, -53.3750
-0.0844, -0.6422, -0.6673, 27.4695, 44.2512, -69.7165
0.4179, -0.6098, -0.6034, 31.9207, 58.9463, -31.2409
0.4643, -0.7324, -0.5017, 17.5915, 12.2390, -18.4360
0.4666, -0.7270, -0.4747, -5.0305, 14.2512, 20.5274
0.2188, -0.7619, -0.4841, -24.2988, 16.6902, 42.6616
0.0773, -0.6917, -0.5389, -40.8232, 20.1049, 59.7957
-0.2016, -0.5923, -0.7722, -34.4207, -30.0780, 53.5152
-0.9037, -0.5501, -0.9638, -13.5061, -84.1024, 0.5274
-1.1594, -0.5859, -0.9590, 15.0305, -53.2488, -45.0823
-0.5597, -0.6389, -0.7005, 22.2256, 44.0683, -57.7043
0.2532, -0.6129, -0.6670, 26.0061, 50.4707, -49.2287
0.4604, -0.7047, -0.5474, 25.8841, 23.8244, -29.6555
0.4460, -0.7603, -0.5198, 9.9695, -3.7366, -12.6433
0.4466, -0.7654, -0.4913, -11.7988, 22.4829, 32.9055
0.2145, -0.7265, -0.5063, -31.7378, 20.5927, 53.6372
0.0074, -0.6409, -0.6686, -39.7866, -2.8829, 61.5640
-0.4526, -0.5684, -0.8164, -31.3110, -52.3341, 40.6494
-1.1478, -0.5884, -1.0246, -1.6768, -104.6512, -25.2652
-1.0543, -0.6047, -0.8640, 20.2744, -3.1268, -54.2896
-0.2714, -0.6715, -0.6802, 26.0061, 48.8854, -69.5945
0.4368, -0.5882, -0.6121, 35.7012, 52.1780, -42.0335
0.3911, -0.7396, -0.4750, 24.9695, 4.0073, -33.9848
0.5051, -0.7148, -0.4716, 2.0427, 11.2024, 9.1250
0.3921, -0.7540, -0.4636, -21.1280, 23.7634, 45.0396
0.2193, -0.6924, -0.5200, -40.2134, 21.2024, 68.6982
-0.0899, -0.6134, -0.6838, -40.2134, -19.8951, 66.4421
-0.7314, -0.5712, -0.9034, -24.9695, -79.2244, 26.5030
-1.3270, -0.5899, -1.0212, 7.0427, -89.5293, -41.7287
-0.8652, -0.5875, -0.8411, 23.2012, 26.6293, -53.1921
0.0259, -0.6675, -0.6393, 31.0061, 48.4585, -65.9969
0.5265, -0.6633, -0.5501, 34.9695, 43.8854, -31.5457
0.5336, -0.7646, -0.5154, 20.2744, -0.3829, -16.7896
0.5076, -0.7455, -0.4698, -4.0549, 20.7756, 29.8567
0.2567, -0.7581, -0.4490, -28.4451, 20.5317, 53.5152
0.0024, -0.6410, -0.6389, -43.0183, 2.7878, 64.3079
-0.4451, -0.5681, -0.7706, -36.0061, -52.5780, 43.8811
-1.1301, -0.5466, -0.9979, -5.7622, -97.8829, -15.0213
-1.1174, -0.5582, -0.9184, 17.9573, -20.7488, -51.6677
-0.2963, -0.6044, -0.6868, 27.1037, 54.4951, -63.2530
0.5345, -0.5451, -0.6478, 32.4695, 69.4341, -31.8506
0.5557, -0.7249, -0.5055, 20.7012, 20.8976, -11.9116
0.5311, -0.7542, -0.5076, -2.6524, 7.5439, 25.2226
0.2331, -0.7745, -0.4783, -24.3598, 16.6293, 47.8445
0.0312, -0.6408, -0.6649, -39.7866, -0.0780, 60.8323
-0.4534, -0.6040, -0.7560, -34.3598, -39.1634, 41.9909
-1.0363, -0.5497, -0.9952, -8.0183, -84.2854, -10.4482
-1.0855, -0.5545, -0.9076, 19.3598, -25.6878, -51.2409
-0.2709, -0.5312, -0.6774, 28.3232, 43.6415, -66.7896
0.4258, -0.5853, -0.6359, 33.3841, 63.6415, -36.1189
0.4825, -0.7620, -0.4866, 23.6890, 19.3732, -21.7287
0.5758, -0.7271, -0.4749, 2.0427, 15.0439, 21.0762
0.2756, -0.7722, -0.4608, -22.4695, 16.3244, 44.7348
0.0782, -0.6676, -0.5370, -42.1037, 15.1049, 63.7591
-0.2483, -0.5818, -0.7424, -39.0549, -23.3707, 56.1982
-0.8250, -0.5474, -0.9532, -19.6037, -76.2366, 10.1616
-1.1955, -0.5647, -0.9810, 15.3963, -64.2244, -45.4482
-0.6475, -0.6265, -0.7606, 26.9207, 36.9341, -58.3140
0.1993, -0.6097, -0.7191, 32.2256, 43.3366, -57.4604
0.3854, -0.7170, -0.5504, 30.0305, 27.1780, -36.2409
0.4705, -0.7087, -0.5725, 14.2378, 4.3122, -15.5701
0.5297, -0.7633, -0.4892, -7.6524, 30.2878, 26.4421
0.2826, -0.7444, -0.4759, -27.7744, 23.8854, 51.5640
0.0416, -0.6499, -0.5840, -41.7988, 11.8122, 65.7713
-0.3975, -0.5689, -0.7665, -34.3598, -40.0780, 47.7226
-1.0317, -0.5522, -0.9835, -9.1159, -85.3220, -9.3506
-1.1035, -0.5454, -0.9113, 17.7134, -23.8585, -45.3872
-0.2996, -0.5685, -0.6683, 26.9817, 52.1171, -53.6799
0.3761, -0.6074, -0.6744, 31.2500, 48.7024, -41.7896
0.4191, -0.7378, -0.5234, 23.5671, 16.5073, -21.9116
0.5063, -0.7350, -0.5165, 4.1768, 8.4585, 10.0396
0.3710, -0.7996, -0.4606, -17.4695, 22.5439, 43.6372
0.1562, -0.6931, -0.5234, -37.3476, 13.3366, 63.0274
-0.2509, -0.5924, -0.7363, -34.4817, -29.1024, 53.7591
-0.8871, -0.5452, -0.9653, -14.7866, -88.3098, 2.1738
-1.2307, -0.5960, -0.9744, 17.3476, -62.8220, -49.3506
-0.5449, -0.6436, -0.7476, 27.5305, 44.1902, -62.7043
0.3226, -0.5927, -0.7208, 32.8354, 63.3976, -49.1067
0.5090, -0.7376, -0.4935, 28.4451, 31.4463, -25.0213
0.5942, -0.7423, -0.5056, 8.1402, 10.1659, 8.0274
0.3924, -0.8030, -0.4332, -17.8963, 19.9829, 40.4055
0.1230, -0.6855, -0.4987, -39.6646, 16.6293, 60.6494
-0.2165, -0.5855, -0.7743, -37.5915, -28.0659, 50.1006
-0.8682, -0.5199, -0.9553, -18.4451, -83.0049, 3.8811
-1.1706, -0.5736, -0.9397, 13.3232, -54.4073, -44.5945
-0.5167, -0.6195, -0.7388, 22.5915, 47.4829, -49.8384
0.2578, -0.6585, -0.6221, 27.6524, 47.2390, -48.8628
0.5142, -0.7053, -0.5341, 23.9939, 32.0561, -13.4970
0.5136, -0.7589, -0.5214, 5.2744, 2.6049, 8.8201
0.3298, -0.7919, -0.4827, -18.1402, 16.0195, 37.9055
0.1517, -0.6920, -0.5037, -39.2988, 17.6659, 56.3811
-0.1351, -0.6098, -0.7253, -39.4207, -13.9195, 55.5274
-0.7164, -0.5630, -0.9470, -22.8963, -71.6024, 12.5396
-1.1997, -0.5695, -1.0045, 11.4939, -77.8829, -44.4116
-0.7438, -0.6350, -0.8021, 25.0915, 35.7756, -55.9969
0.1458, -0.6265, -0.6664, 29.8476, 58.4585, -55.6311
0.4987, -0.6927, -0.5538, 30.5793, 43.7024, -26.0579
0.5162, -0.7423, -0.5549, 15.1524, 4.0683, -10.8750
0.4732, -0.7824, -0.4519, -8.8720, 21.7512, 29.3079
0.2512, -0.7233, -0.4791, -30.7012, 20.1659, 52.2348
0.0105, -0.6005, -0.6642, -42.5915, -2.7000, 57.7226
-0.5131, -0.5565, -0.8044, -34.5427, -51.9073, 35.3445
-1.1268, -0.5661, -0.9668, -6.9817, -94.4073, -23.7409
-1.0129, -0.5735, -0.8449, 13.6890, -8.9805, -51.6067
-0.2396, -0.6333, -0.6804, 21.7988, 31.3244, -66.1189
0.3639, -0.6122, -0.6479, 29.6646, 30.3488, -45.1433
0.3550, -0.7429, -0.6219, 24.3598, -6.7244, -39.9604
0.4745, -0.7166, -0.5747, 10.5183, 11.9951, -2.5213
0.4523, -0.7800, -0.4962, -7.2866, 29.8610, 40.4055
0.1823, -0.7064, -0.5135, -26.2500, 18.2146, 57.4177
-0.0773, -0.6325, -0.6819, -33.2622, -14.1024, 55.8323
-0.5634, -0.5950, -0.7840, -26.1280, -49.2854, 28.6982
-0.9677, -0.5800, -0.9457, -6.5549, -63.1268, -15.7530
-0.8126, -0.5823, -0.8587, 13.8110, 2.4829, -38.5579
-0.2579, -0.6782, -0.7155, 24.5427, 38.8854, -48.6799
0.3538, -0.5971, -0.6895, 31.7378, 33.9463, -37.1555
0.4286, -0.7128, -0.5659, 26.2500, 11.8732, -20.5701
0.5210, -0.7125, -0.4937, 8.0183, 18.9463, 17.2957
0.3152, -0.7704, -0.4736, -13.8720, 21.2024, 45.4055
0.1469, -0.7019, -0.5397, -35.0915, 15.5317, 59.1250
-0.1444, -0.6336, -0.7231, -35.0305, -29.1634, 52.2348
-0.7946, -0.5816, -0.9098, -21.4939, -74.7122, 11.0762
-1.1535, -0.6268, -0.9704, 8.6280, -66.9683, -40.9360
-0.6429, -0.6198, -0.7886, 21.0061, 35.4707, -52.8872
0.0578, -0.6529, -0.7120, 27.8963, 43.3976, -60.2652
0.4852, -0.6547, -0.5732, 29.1159, 40.6537, -23.4970
0.5723, -0.7038, -0.5226, 13.2622, 9.4341, -0.2652
0.4432, -0.7576, -0.4804, -9.1159, 15.4707, 34.3689
0.1723, -0.6940, -0.4967, -31.4939, 17.2390, 54.2470
-0.0060, -0.6219, -0.6970, -43.0793, -9.4073, 57.1128
-0.5119, -0.5852, -0.7883, -31.2500, -56.1146, 39.2470
-1.1196, -0.5612, -1.0071, -3.2622, -87.7000, -21.7896
-0.9928, -0.5835, -0.8937, 19.4207, -3.4317, -48.2530
-0.1942, -0.6290, -0.7463, 29.6646, 52.3000, -60.2043
0.4635, -0.6098, -0.6405, 36.3110, 50.5317, -37.5823
0.4949, -0.7540, -0.4843, 25.6402, 9.6780, -22.9482
0.5242, -0.7240, -0.4992, 3.6890, 8.0927, 16.7470
0.2763, -0.7577, -0.4738, -16.3110, 17.4829, 45.8323
0.1273, -0.6801, -0.5372, -36.1280, 20.2268, 64.0031
-0.1765, -0.5892, -0.7391, -33.2622, -29.8951, 54.3689
-0.8713, -0.5831, -0.9337, -14.3598, -84.6512, 7.8445
-1.1488, -0.5981, -0.9257, 15.3963, -46.8463, -40.3872
-0.5239, -0.5911, -0.7485, 23.0183, 50.8976, -47.4604
0.2012, -0.6583, -0.6811, 27.3476, 46.4463, -47.5213
0.4977, -0.6907, -0.6017, 24.6037, 30.5927, -15.5091
0.4766, -0.7453, -0.5311, 6.9207, 1.6293, 1.1372
0.3282, -0.7755, -0.4900, -12.9573, 18.5195, 38.2104
0.1236, -0.7053, -0.5105, -32.5305, 16.6293, 53.8811
-0.1730, -0.6061, -0.7720, -33.1402, -27.6390, 45.4055
-0.8437, -0.5726, -0.9294, -15.0305, -76.8463, 3.1494
-1.0719, -0.6022, -0.9082, 13.0793, -49.3463, -42.2165
-0.4944, -0.6416, -0.7178, 22.8963, 46.3244, -48.9848
0.2084, -0.6505, -0.6802, 29.1159, 40.2268, -49.7774
0.4607, -0.7314, -0.4947, 27.0427, 29.4951, -13.6799
0.5620, -0.7380, -0.4456, 7.1646, 8.2756, 13.0884
0.2995, -0.7998, -0.4735, -15.7622, 7.4829, 37.6616
0.0566, -0.7008, -0.5164, -37.2256, 2.2390, 49.7348
-0.2177, -0.6528, -0.7891, -35.7012, -32.8220, 37.9055
-0.8294, -0.5468, -0.8979, -19.2378, -70.8098, -0.9970
-1.0172, -0.5775, -0.9617, 12.1646, -44.6512, -40.9360
-0.4595, -0.6408, -0.7482, 26.6768, 45.5317, -48.1311
0.2119, -0.6621, -0.6555, 30.7622, 45.5927, -45.3872
0.5177, -0.7340, -0.4577, 22.6524, 38.7634, -7.9482
0.5959, -0.7622, -0.4435, 0.0305, 16.3854, 22.0518
0.2536, -0.8104, -0.4548, -24.0549, 5.8976, 42.7226
-0.0134, -0.6878, -0.5992, -45.0305, -11.5415, 51.0152
-0.5045, -0.6001, -0.8533, -30.2134, -56.1756, 26.8689
-1.1349, -0.5595, -1.0244, -1.1890, -91.7244, -34.0457
-0.8668, -0.5571, -0.8583, 22.1037, 7.0561, -49.8384
-0.0963, -0.6516, -0.6325, 30.6402, 46.6902, -60.2652
0.5065, -0.5988, -0.5594, 32.7744, 57.1780, -20.8140
0.6100, -0.7211, -0.4551, 15.0305, 17.0561, 2.6006
0.4709, -0.8111, -0.4487, -12.3476, 10.0439, 36.1372
0.1602, -0.7322, -0.4937, -36.8598, 7.0561, 52.4787
-0.1160, -0.6412, -0.7614, -43.5061, -16.1756, 54.3079
-0.7172, -0.5424, -0.9045, -27.1037, -67.3951, 22.1738
-1.2321, -0.5748, -1.0157, 9.4817, -84.5902, -41.3628
-0.6920, -0.5880, -0.7823, 24.9695, 40.1659, -50.2652
0.0907, -0.6418, -0.6397, 32.2866, 54.8610, -53.2530
0.5582, -0.6306, -0.5466, 30.8232, 51.5683, -10.3872
0.5577, -0.7587, -0.4639, 11.7988, 5.6537, 2.1738
0.3814, -0.8132, -0.4543, -13.0793, 9.1902, 35.5884
0.1216, -0.7111, -0.5102, -35.2134, 9.3732, 54.1250
-0.0639, -0.6666, -0.7391, -40.5183, -7.2122, 57.2957
-0.6392, -0.5506, -0.9013, -23.4451, -63.4317, 26.6250
-1.2437, -0.5847, -1.0251, 12.4695, -87.7610, -43.3750
-0.7672, -0.6151, -0.8030, 26.3110, 29.4951, -54.4726
0.0959, -0.6434, -0.6252, 32.3476, 49.6171, -59.0457
0.5100, -0.6661, -0.5552, 32.5305, 46.8732, -23.9848
0.5228, -0.7838, -0.4551, 13.1402, 3.2146, -9.1677
0.4939, -0.7839, -0.4568, -14.1159, 19.6171, 36.2591
0.1942, -0.7179, -0.4744, -35.5183, 13.9463, 53.6372
-0.0632, -0.6445, -0.7416, -42.8354, -6.4805, 63.0274
-0.6817, -0.5194, -0.8821, -30.2134, -61.8463, 25.1006
-1.2370, -0.5861, -0.9993, 3.6280, -94.5902, -37.7652
-0.7897, -0.5991, -0.8001, 19.6646, 28.7024, -47.7043
0.0662, -0.6327, -0.5850, 26.6159, 59.8610, -49.8994
0.5724, -0.6534, -0.5603, 25.3354, 40.4098, -16.8506
0.4720, -0.7484, -0.4311, 8.5671, 2.5439, 2.5396
0.3035, -0.8208, -0.4684, -14.9085, -0.5659, 27.6616
0.0748, -0.7267, -0.5052, -34.8476, 2.6659, 43.4543
-0.1337, -0.5679, -0.7358, -39.7256, -23.9195, 40.1616
-0.7767, -0.6408, -0.9453, -12.7134, -89.6512, 3.0274
-1.1707, -0.6472, -0.9179, 17.1037, -67.2122, -47.5823
-0.5737, -0.6906, -0.7342, 23.9329, 37.6049, -58.5579
0.3020, -0.5761, -0.6832, 33.6280, 50.5927, -46.1189
0.4902, -0.7235, -0.4573, 24.2378, 19.8610, -16.3628
0.5478, -0.7263, -0.4774, 0.7012, -4.6512, 14.2470
0.2739, -0.7968, -0.4866, -26.4329, 3.8854, 40.3445
0.1008, -0.6773, -0.5593, -48.5061, 4.7390, 58.0274
-0.3790, -0.5845, -0.8711, -36.1280, -46.5415, 42.6616
-1.2092, -0.5542, -1.0751, -0.5183, -112.9439, -24.7774
-1.1519, -0.6030, -0.8956, 25.2134, -11.0537, -53.4360
-0.1937, -0.6244, -0.6386, 31.7988, 61.0195, -60.6921
0.5097, -0.6060, -0.5338, 31.4329, 62.4220, -26.9116
0.4955, -0.7387, -0.4135, 12.6524, -0.2610, -11.4848
0.5090, -0.7264, -0.4926, -12.3476, -2.1512, 30.7713
0.1824, -0.6765, -0.5004, -37.3476, 7.7878, 51.8079
0.0149, -0.6232, -0.7299, -47.2256, 3.8854, 67.9665
-0.6274, -0.4657, -0.9866, -26.6159, -61.6634, 37.1128
-1.3361, -0.6191, -0.9954, 9.2378, -112.0293, -35.4482
-0.9376, -0.6268, -0.7997, 22.7744, 17.9098, -52.0335
0.0047, -0.6322, -0.6834, 26.0061, 54.6780, -58.4969
0.4176, -0.6657, -0.6151, 27.4085, 46.3244, -31.6067
0.3967, -0.7686, -0.5191, 11.9817, 2.9098, -22.7652
0.5038, -0.7285, -0.4954, -10.8232, 21.1415, 26.8079
0.2707, -0.7141, -0.4633, -33.6890, 30.2878, 53.1494
0.0621, -0.5975, -0.6197, -47.2866, 9.0683, 68.3323
-0.4627, -0.5236, -0.8118, -36.1890, -58.1268, 46.7470
-1.2914, -0.6006, -0.9988, -1.6159, -112.8220, -19.3506
-1.1326, -0.6022, -0.8656, 22.4695, 2.2390, -49.9604
-0.2460, -0.6517, -0.6667, 29.7256, 60.6537, -59.5945
0.4610, -0.5886, -0.6217, 34.4817, 66.0805, -27.9482
0.4556, -0.7420, -0.4965, 21.1280, 3.2146, -17.3994
0.4814, -0.7263, -0.4901, -3.5671, 7.5439, 29.3079
0.1842, -0.7114, -0.5032, -25.7622, 17.6659, 50.9543
0.0345, -0.6369, -0.6246, -42.2256, 11.8732, 66.8689
-0.4449, -0.5208, -0.8493, -32.7744, -46.3585, 46.2591
-1.1925, -0.5753, -1.0144, 1.3110, -107.0902, -18.4970
-1.1759, -0.6115, -0.8873, 23.7500, -12.0293, -49.5945
-0.3698, -0.6535, -0.6907, 30.3963, 58.0927, -64.4116
0.4603, -0.5926, -0.6778, 33.8720, 68.1537, -34.0457
0.4178, -0.7421, -0.5217, 21.9207, 13.7634, -25.0823
0.5100, -0.7103, -0.5074, -0.9451, 14.9829, 18.8201
0.2748, -0.7825, -0.4652, -24.7256, 28.5195, 47.2348
0.0976, -0.6643, -0.5800, -42.1037, 16.3244, 65.0396
-0.3689, -0.5869, -0.7498, -33.1402, -37.8220, 49.0640
-1.0949, -0.5419, -0.9684, -5.3354, -89.5293, -8.3140
-1.2009, -0.5676, -0.9008, 20.2744, -24.7122, -48.9238
-0.4152, -0.6461, -0.6739, 28.6280, 55.5927, -60.9360
0.4094, -0.5786, -0.6209, 33.6890, 65.5317, -35.5091
0.3933, -0.7424, -0.5249, 24.0549, 6.5073, -31.7896
0.3890, -0.7110, -0.5349, 5.5183, -2.9439, 1.1982
0.3164, -0.7528, -0.4552, -17.4695, 29.1293, 39.0640
0.2101, -0.6720, -0.5091, -36.0671, 29.3732, 62.7835
-0.0756, -0.5997, -0.7169, -38.0793, -25.1390, 59.9787
-0.7527, -0.5542, -0.9462, -21.0671, -85.0171, 21.6860
-1.4365, -0.6480, -1.0162, 13.9329, -89.8951, -43.0701
-0.8021, -0.6531, -0.7652, 26.3110, 45.1659, -57.5823
0.1123, -0.6234, -0.6938, 35.4573, 62.6659, -62.6433
0.4933, -0.7114, -0.5184, 33.5671, 45.7756, -33.4360
0.6113, -0.7259, -0.4629, 13.2012, 12.3610, -3.6189
0.4845, -0.8081, -0.4186, -16.5549, 24.1902, 41.5640
0.2247, -0.6978, -0.4531, -42.1646, 24.3732, 62.9665
-0.0557, -0.5812, -0.7205, -45.9451, -16.5415, 66.4421
-0.8090, -0.5239, -0.8928, -27.4695, -87.5171, 23.3323
-1.3097, -0.6101, -0.9679, 9.4817, -88.7976, -38.6799
-0.7464, -0.5834, -0.7478, 21.1280, 50.3488, -44.8994
0.0899, -0.6355, -0.6543, 29.0549, 67.3000, -45.3872
0.5246, -0.6464, -0.5858, 25.8232, 37.7268, -14.9604
0.3119, -0.7752, -0.5236, 11.1280, -14.8951, -11.6067
0.1307, -0.7301, -0.5835, -6.4329, -5.2000, 13.3323
-0.0827, -0.7052, -0.6292, -17.7744, 8.7634, 20.8933
-0.1440, -0.6387, -0.6894, -20.3354, 3.9463, 21.5640
-0.2251, -0.6458, -0.7512, -14.6037, -16.8463, 15.2226
-0.3600, -0.6442, -0.7974, -2.7134, -14.1634, 6.0762
-0.3139, -0.6532, -0.7662, 3.2622, 14.8000, 0.4055
-0.0639, -0.6878, -0.6708, 3.5061, 34.6780, 9.0030
0.0026, -0.6978, -0.6625, 3.6890, 16.8732, 8.6982
-0.0974, -0.6942, -0.6993, 5.4573, -6.6024, 4.3689
-0.2158, -0.6953, -0.7016, 6.1280, -8.1878, -0.4482
-0.1828, -0.6625, -0.6345, 3.0183, 6.2024, -0.1433
