ax,ay,az,gx,gy,gz
-0.4797, -0.4025, -0.7789, -0.2134, -5.3220, 0.8933
-0.4731, -0.4048, -0.7837, 0.7012, -5.2000, 1.1372
-0.4696, -0.4072, -0.7729, 1.4329, -5.1390, 0.8323
-0.4656, -0.4063, -0.7646, 1.8598, -6.7854, 1.5640
-0.4734, -0.4085, -0.7637, 1.0671, -7.3341, 0.9543
-0.4793, -0.4126, -0.7515, 0.9451, -8.1878, 0.2835
-0.4796, -0.4155, -0.7665, -0.5183, -9.1024, 1.1982
-0.4818, -0.4082, -0.7772, -1.1890, -9.8951, 0.8933
-0.4876, -0.4070, -0.7725, -0.9451, -11.1146, -0.8140
-0.4934, -0.4098, -0.7737, -0.8841, -9.6512, -0.2043
-0.4965, -0.4110, -0.7573, -1.8598, -6.7854, 0.9543
-0.4967, -0.4141, -0.7784, -0.3354, -9.3463, -0.2652
-0.5220, -0.4127, -0.7546, 0.0915, -6.6024, -0.2652
-0.5206, -0.4075, -0.7700, 0.5183, -0.2610, 0.8933
-0.4988, -0.4107, -0.7464, 0.3963, 2.2390, 1.1982
-0.4990, -0.4079, -0.7646, -0.2134, 0.4707, -0.6311
-0.4927, -0.4095, -0.7485, -0.8841, -4.1024, -1.2409
-0.5090, -0.4072, -0.7568, 0.0305, -7.0293, -1.2409
-0.5135, -0.4083, -0.7428, -1.0061, -5.5659, -2.4604
-0.4910, -0.4197, -0.7446, -1.6159, -6.1146, -2.0335
-0.4750, -0.4193, -0.7290, -1.9207, -17.2122, -2.7043
-0.4898, -0.4198, -0.7397, -1.1280, -32.6390, -5.5091
-0.5170, -0.4281, -0.7143, -0.8232, -37.3341, -5.6311
-0.5427, -0.4373, -0.7156, 0.5793, -26.2976, -5.6311
-0.5916, -0.4446, -0.7202, 0.1524, -20.6878, -11.5457
-0.6167, -0.4788, -0.6914, -3.5061, -12.5780, -15.2652
-0.5714, -0.4525, -0.7227, -5.2134, -5.5659, -19.1677
-0.5550, -0.4575, -0.7083, -6.3110, 2.9098, -20.9360
-0.5534, -0.4564, -0.6957, -8.9939, 11.0195, -21.9116
-0.5064, -0.4432, -0.7215, -10.6402, 20.1049, -20.4482
-0.4985, -0.4044, -0.7723, -8.6890, 17.6049, -23.8628
-0.4599, -0.4502, -0.7344, -10.7622, 20.2878, -18.8018
-0.4662, -0.4115, -0.7599, -10.5793, 15.7756, -18.0091
-0.4801, -0.4290, -0.7400, -12.5305, 17.8488, -18.0701
-0.4712, -0.4025, -0.8086, -12.6524, 7.4220, -17.8872
-0.4925, -0.4275, -0.7809, -11.9817, 14.8610, -15.5091
-0.4824, -0.3906, -0.8257, -9.7256, 25.2878, -15.9970
-0.4664, -0.4140, -0.8143, -6.6768, 25.9585, -15.3872
-0.4367, -0.4186, -0.8339, -5.0915, 24.1293, -15.8750
-0.4025, -0.4350, -0.7982, -4.2988, 19.8610, -15.9360
-0.4033, -0.4181, -0.8079, -3.0793, 20.1659, -12.5213
-0.4404, -0.4035, -0.8376, -0.0305, 27.7268, -14.1677
-0.4318, -0.4226, -0.8331, 2.8963, 38.8244, -12.5823
-0.3637, -0.4404, -0.7978, 3.6890, 38.7024, -12.6433
-0.3360, -0.4468, -0.8018, 3.3841, 28.3976, -15.0213
-0.3535, -0.4317, -0.8243, 5.1524, 21.6293, -16.9116
-0.3581, -0.4489, -0.8259, 7.7744, 26.7512, -16.3628
-0.3419, -0.4442, -0.8133, 10.1524, 28.2756, -17.8872
-0.3005, -0.4622, -0.8105, 10.9451, 18.2756, -19.5945
-0.3010, -0.4365, -0.8115, 13.9329, 21.3244, -20.5701
-0.2827, -0.4431, -0.7821, 14.7256, 32.6659, -17.6433
-0.2229, -0.4368, -0.7885, 15.0915, 32.7268, -12.4604
-0.1926, -0.4381, -0.7826, 15.2134, 24.1293, -8.8628
-0.2537, -0.4406, -0.8672, 15.7012, 13.3366, -8.2530
-0.3076, -0.4785, -0.8443, 18.2012, 12.6049, -8.2530
-0.2347, -0.4980, -0.8062, 17.3476, 14.3122, -7.2774
-0.2552, -0.4851, -0.8024, 16.9817, 20.9585, -7.5213
-0.2212, -0.5330, -0.7938, 12.8354, 16.6902, -6.9726
-0.1791, -0.5394, -0.8027, 10.3354, 2.7878, -9.2287
-0.2508, -0.5363, -0.8289, 10.2134, -6.4195, -15.1433
-0.2684, -0.5523, -0.8181, 9.1159, -0.3220, -17.0335
-0.2085, -0.5354, -0.8310, 11.1280, -2.4561, -19.4116
-0.2256, -0.5499, -0.8011, 12.4085, -3.6756, -23.4360
-0.2003, -0.5407, -0.7933, 11.5549, -0.9317, -23.9238
-0.1528, -0.5355, -0.7856, 11.1280, -7.0293, -23.9238
-0.1297, -0.5332, -0.7621, 9.3598, -18.6756, -22.5823
-0.2048, -0.5330, -0.7646, 8.5671, -22.1512, -25.3872
-0.1953, -0.5480, -0.7682, 6.6768, -25.2610, -24.5945
-0.2386, -0.5527, -0.8053, 8.2012, -25.7488, -30.0823
-0.2671, -0.5999, -0.7871, 8.8110, -24.9561, -35.2652
-0.2373, -0.5874, -0.8312, 11.0061, -13.9195, -36.8506
-0.1925, -0.5728, -0.8209, 14.1159, -11.7854, -39.7774
-0.1076, -0.5617, -0.7444, 14.2988, -5.3220, -36.0579
0.1016, -0.5136, -0.6566, 6.0061, 7.2390, -14.9604
0.1429, -0.5253, -0.6804, -2.0427, 15.3488, 9.1860
0.0096, -0.5736, -0.7223, -10.5793, 13.2756, 24.1250
-0.0061, -0.5788, -0.7316, -18.2622, 22.3610, 40.5274
-0.1661, -0.6074, -0.7801, -21.9817, 25.5927, 46.3811
-0.4256, -0.6090, -0.8556, -19.4207, -2.8829, 26.2591
-0.5829, -0.6511, -0.9285, -8.2012, -16.5415, -3.6189
-0.5598, -0.5838, -0.8900, 3.7500, -20.1390, -33.8018
-0.3859, -0.5628, -0.8153, 15.2744, -2.8829, -47.8262
-0.0510, -0.5024, -0.6174, 10.4573, 33.8244, -44.4726
0.4402, -0.4339, -0.5284, -2.1037, 47.9707, -5.6311
0.5428, -0.4854, -0.5939, -18.3841, 50.8366, 40.2835
0.1969, -0.4675, -0.6547, -31.9817, 31.3854, 67.3567
-0.1928, -0.6239, -0.8511, -38.8720, 23.5195, 74.1860
-0.6155, -0.5841, -1.0145, -27.4695, -29.6512, 40.4665
-0.9856, -0.7508, -1.0508, -0.8841, -51.7854, -25.3872
-0.5784, -0.6325, -0.9969, 17.8354, 13.9463, -53.1921
-0.0292, -0.5141, -0.8221, 29.0549, 55.2878, -53.1311
0.3057, -0.4755, -0.6326, 21.5549, 40.8976, -41.5457
0.6015, -0.4017, -0.4955, -1.3720, 28.0927, -1.7287
0.3539, -0.4364, -0.6325, -20.7622, 21.6902, 28.7591
0.0956, -0.4209, -0.7554, -31.9817, 15.1659, 56.8079
-0.2357, -0.5163, -0.8092, -35.2134, 11.5073, 63.4543
-0.5802, -0.5294, -0.9828, -24.7256, -38.6146, 32.4177
-0.8960, -0.6138, -1.0276, 0.2744, -56.4195, -22.3994
-0.6081, -0.5979, -0.9883, 15.3963, -6.9073, -52.0335
-0.1580, -0.5126, -0.8725, 28.1402, 48.8244, -52.5823
0.1888, -0.4680, -0.7446, 24.7866, 53.1537, -48.6189
0.5754, -0.4639, -0.5198, 5.2134, 39.3122, -11.6067
0.5839, -0.4558, -0.6251, -14.7256, 32.3000, 33.9421
0.2089, -0.4577, -0.7689, -21.0671, 10.7756, 52.9055
-0.1185, -0.4767, -0.8481, -23.8720, 29.8000, 74.1860
-0.3798, -0.5544, -0.8743, -18.5671, -15.0780, 46.7470
-0.8151, -0.6155, -1.0576, 7.1037, -56.9073, -2.1555
-0.7727, -0.6070, -0.9368, 23.2012, -33.3707, -42.5823
-0.2973, -0.5625, -0.8646, 32.4085, 22.4829, -53.9238
0.1216, -0.4691, -0.7073, 27.2256, 51.4463, -48.1311
0.6380, -0.4912, -0.4808, 4.1159, 50.8366, -10.5701
0.7200, -0.4845, -0.5922, -15.2744, 23.8854, 34.1860
0.3226, -0.5085, -0.7358, -27.1037, -4.2244, 54.8567
-0.1076, -0.4693, -0.8674, -30.0305, -0.1390, 72.5396
-0.5562, -0.5553, -1.0020, -19.8476, -61.0537, 33.6982
-1.0164, -0.5796, -1.0980, 7.2866, -89.2854, -27.3384
-0.7645, -0.6352, -0.9453, 19.9695, -23.8585, -62.5823
-0.1427, -0.5366, -0.8322, 28.3232, 54.0683, -61.0579
0.3107, -0.4832, -0.6761, 22.7744, 55.7756, -52.1555
0.6932, -0.4907, -0.5142, 2.8963, 37.9707, -11.3018
0.6941, -0.5279, -0.6437, -16.3720, 16.5073, 32.1128
0.2378, -0.4624, -0.7822, -24.3598, 1.3244, 56.7470
-0.1963, -0.4823, -0.8398, -27.5915, 8.7024, 70.5884
-0.6023, -0.5129, -1.0305, -16.6768, -60.3829, 27.5396
-1.0365, -0.6149, -1.0240, 9.6037, -88.6146, -35.2652
-0.7120, -0.6220, -0.9129, 21.3110, -11.9683, -64.8384
-0.0311, -0.5168, -0.7678, 27.3476, 68.7634, -57.8872
0.4441, -0.4666, -0.6530, 19.7256, 63.4585, -44.1677
0.8255, -0.4825, -0.5187, -1.9207, 43.0927, 1.8079
0.6573, -0.5217, -0.6681, -18.9329, 4.1902, 37.8445
0.1741, -0.4348, -0.8239, -25.7622, 5.2268, 68.0274
-0.2660, -0.5137, -0.8563, -28.5061, -7.5780, 62.9055
-0.6625, -0.5828, -0.9974, -14.1768, -73.6146, 17.0518
-1.0011, -0.6602, -0.9677, 10.0915, -62.3951, -40.4482
-0.4840, -0.5582, -0.9147, 21.0061, 12.8488, -57.1555
0.0167, -0.5083, -0.7825, 28.4451, 51.3244, -57.2774
0.3543, -0.4726, -0.7228, 23.7500, 40.1659, -46.1189
0.6342, -0.5070, -0.5259, 7.6524, 27.9098, -10.8140
0.6565, -0.5210, -0.6165, -13.6890, 21.2634, 34.1250
0.2848, -0.4834, -0.7454, -22.5305, 16.9341, 60.8323
-0.0756, -0.4872, -0.8257, -26.6159, 3.2756, 66.6860
-0.5300, -0.5606, -0.9320, -16.4329, -51.3585, 30.3445
-0.8823, -0.6038, -1.0060, 4.8476, -61.2976, -20.6921
-0.5829, -0.5749, -0.8874, 14.0549, -9.7122, -50.6921
-0.0352, -0.5344, -0.7921, 21.7988, 30.7146, -55.0823
0.3014, -0.4815, -0.6848, 16.6768, 37.9707, -40.8140
0.5422, -0.5045, -0.6278, 6.4939, 25.9585, -12.4604
0.6361, -0.5269, -0.6310, -11.2500, 23.5195, 32.2348
0.3537, -0.4852, -0.7460, -19.3598, 19.0683, 60.7713
-0.0545, -0.4884, -0.8194, -23.8110, 12.4220, 68.9421
-0.5039, -0.5776, -0.9262, -17.8354, -56.7854, 29.2470
-0.9506, -0.5990, -1.0327, 6.9207, -78.5537, -22.3994
-0.6605, -0.5811, -0.9355, 16.8598, -19.1634, -56.0579
-0.0787, -0.5108, -0.8417, 27.3476, 35.1049, -58.6189
0.3218, -0.4755, -0.6909, 21.6768, 33.9463, -47.8262
0.6138, -0.5078, -0.5735, 8.2622, 22.6049, -16.1799
0.6897, -0.4888, -0.6001, -12.0427, 16.8122, 29.7957
0.3420, -0.4995, -0.7364, -22.5915, 14.8000, 64.5518
-0.0136, -0.5004, -0.8130, -28.9329, 16.8122, 78.7591
-0.4591, -0.5467, -0.8849, -24.6037, -47.0902, 43.4543
-1.0296, -0.5831, -1.1010, 1.4329, -96.4195, -13.8018
-0.8151, -0.6412, -0.9120, 14.9695, -29.7732, -58.3140
-0.0906, -0.5219, -0.8493, 22.9573, 53.8854, -55.7530
0.3542, -0.4851, -0.6938, 17.8963, 56.8732, -44.6555
0.6209, -0.4747, -0.7075, 7.1646, 29.0683, -16.9726
0.6657, -0.5131, -0.6219, -10.9451, 16.2634, 25.8933
0.3174, -0.4774, -0.7839, -20.7012, 14.9829, 58.0274
-0.0677, -0.4700, -0.8284, -25.3963, 19.0073, 70.2835
-0.5222, -0.5270, -0.9451, -19.1768, -59.1024, 25.7713
-1.0024, -0.6192, -1.0085, 3.9939, -96.0537, -30.8750
-0.6649, -0.5776, -0.9139, 14.8476, -26.6634, -63.8628
-0.0676, -0.5094, -0.7943, 22.2256, 48.3976, -58.1921
0.4062, -0.4559, -0.7189, 17.5915, 50.5317, -41.1189
0.7007, -0.4980, -0.5967, 4.1159, 27.9707, -8.6189
0.6338, -0.5329, -0.6594, -13.5061, 2.0561, 33.3933
0.2075, -0.4811, -0.7812, -18.5061, 5.8976, 59.8567
-0.1528, -0.4577, -0.8610, -19.6037, 0.4707, 63.0274
-0.6154, -0.5654, -0.9758, -8.2622, -65.0171, 20.1616
-0.9960, -0.6472, -0.9343, 12.5305, -89.7732, -43.6189
-0.5752, -0.5908, -0.8912, 20.6402, -6.6634, -64.7165
0.0495, -0.4952, -0.7260, 25.5183, 61.5073, -59.9604
0.5129, -0.4618, -0.6403, 15.3963, 53.3366, -38.5579
0.7789, -0.4983, -0.5794, 0.5793, 21.8732, 2.9665
0.5367, -0.5532, -0.6914, -10.7012, 0.6537, 36.8079
0.1512, -0.4913, -0.7520, -17.4085, 20.6537, 66.9909
-0.0672, -0.5223, -0.8356, -23.4451, 14.6780, 70.5274
-0.4740, -0.5621, -0.9860, -15.2744, -53.9195, 27.7835
-0.9509, -0.6383, -1.0150, 8.2622, -95.3829, -30.7530
-0.7047, -0.6406, -0.8983, 17.9573, -28.1268, -61.3018
-0.0169, -0.5384, -0.7422, 23.0183, 52.9098, -54.9604
0.4463, -0.5115, -0.6180, 16.4939, 57.8488, -37.5213
0.7322, -0.5133, -0.6096, 4.1768, 23.2146, -2.8262
0.5767, -0.5403, -0.6583, -11.0671, 0.7756, 34.3079
0.1584, -0.4738, -0.7623, -18.6280, 4.9829, 58.6372
-0.1726, -0.5059, -0.8192, -23.1402, 8.0927, 66.1372
-0.5007, -0.5276, -0.9615, -14.6037, -57.5171, 24.6128
-0.8893, -0.5827, -1.0336, 6.7988, -85.9927, -30.3872
-0.6474, -0.5842, -0.9004, 16.9207, -25.3220, -59.1067
-0.1011, -0.5462, -0.8126, 25.2744, 37.8488, -58.3140
0.3270, -0.5073, -0.6788, 20.3354, 52.5439, -42.8872
0.6439, -0.5083, -0.6826, 8.2622, 34.9220, -10.2043
0.6561, -0.5314, -0.6379, -9.1768, 19.8000, 31.8079
0.2735, -0.5172, -0.7183, -19.6646, 12.2390, 57.3567
-0.0433, -0.5039, -0.7737, -24.2988, 24.2512, 75.8933
-0.4125, -0.5890, -0.8862, -23.3232, -36.4805, 38.2104
-0.9641, -0.5725, -1.0671, 2.5305, -97.4561, -21.3628
-0.8427, -0.6220, -0.9332, 18.3232, -41.8463, -66.1189
-0.1909, -0.5472, -0.7987, 26.9207, 48.0317, -65.9969
0.3107, -0.4995, -0.6429, 24.4817, 70.3488, -51.9116
0.7889, -0.5307, -0.5077, 6.3110, 47.3000, -18.3140
0.8296, -0.5003, -0.6182, -12.7134, 18.3366, 36.0152
0.3172, -0.4888, -0.7906, -18.6890, -5.0171, 58.5762
-0.1248, -0.5015, -0.7820, -24.1159, 31.5073, 82.5396
-0.3721, -0.5189, -0.8790, -22.6524, -14.2244, 56.1982
-0.8392, -0.5957, -1.0497, -0.2744, -88.6146, -0.6921
-0.8693, -0.6472, -0.8860, 16.3110, -63.1268, -55.3872
-0.2907, -0.5662, -0.8343, 22.1646, 19.3732, -59.1677
0.1940, -0.5142, -0.7081, 20.6402, 54.4951, -47.9482
0.5987, -0.5090, -0.6620, 9.3598, 46.5683, -20.2043
0.7087, -0.5136, -0.6430, -5.1524, 23.1537, 20.8933
0.3542, -0.5158, -0.7344, -11.9207, 0.3488, 43.7591
-0.0559, -0.4900, -0.7590, -17.8963, -7.0902, 59.2470
-0.4010, -0.6164, -0.8829, -15.0305, -40.0171, 38.8201
-0.7847, -0.6240, -0.9888, 1.1890, -71.6024, -15.9360
-0.7097, -0.6538, -0.9165, 11.3720, -34.2244, -49.8384
-0.2088, -0.6004, -0.8320, 19.6037, 16.0805, -60.9360
0.2692, -0.5198, -0.7175, 15.3354, 46.7512, -45.7530
0.5826, -0.5252, -0.6060, 5.7622, 27.2390, -21.3628
0.6496, -0.4907, -0.6651, -6.9817, 22.0561, 28.8811
0.2544, -0.5460, -0.7272, -13.8110, 0.2268, 43.9421
-0.0137, -0.5134, -0.6930, -23.2012, 19.3122, 65.6494
-0.2183, -0.5163, -0.8348, -24.6037, -10.9927, 51.5640
-0.6106, -0.5823, -0.9642, -13.2622, -58.4317, 9.6738
-0.8452, -0.6557, -0.9699, 4.6037, -64.2854, -36.3018
-0.4640, -0.5930, -0.9307, 17.9573, -5.5049, -57.9482
0.0621, -0.5325, -0.7262, 22.2866, 44.0683, -52.8872
0.4216, -0.5077, -0.7631, 16.1280, 39.5561, -34.7774
0.5533, -0.5223, -0.5966, 4.4207, 12.5439, -8.3750
0.4509, -0.5679, -0.6711, -9.1768, 7.4220, 30.7713
0.1758, -0.5134, -0.7098, -17.2256, 15.9585, 53.5152
-0.0634, -0.5272, -0.7400, -24.3598, 22.1780, 65.6494
-0.3228, -0.5214, -0.9118, -21.6768, -33.4927, 41.3811
-0.7927, -0.6214, -1.0242, -1.7988, -78.4317, -12.0945
-0.7520, -0.6098, -0.9478, 12.6524, -38.0049, -50.8140
-0.2295, -0.5581, -0.8605, 24.8476, 27.1780, -57.8262
0.2160, -0.5250, -0.6498, 20.2134, 46.5073, -46.7287
0.4993, -0.5154, -0.6892, 13.2012, 26.4463, -25.9360
0.6256, -0.4675, -0.6255, -4.9695, 23.0317, 20.0396
0.3556, -0.5587, -0.7085, -13.5671, 19.6171, 47.1738
0.0947, -0.5282, -0.7370, -23.2622, 39.8610, 69.6738
-0.1547, -0.5062, -0.8799, -26.5549, -4.1634, 55.5884
-0.6788, -0.5883, -0.9954, -10.2744, -67.8829, 7.7226
-0.9159, -0.6366, -0.9399, 9.9085, -62.5171, -42.0335
-0.4153, -0.5725, -0.9019, 19.2378, 11.0195, -57.0945
0.1449, -0.5194, -0.7222, 20.8232, 53.8854, -49.1677
0.5395, -0.5194, -0.6581, 7.3476, 37.3610, -27.3384
0.6891, -0.5354, -0.6072, -5.3963, 15.2268, 11.2591
0.4226, -0.5382, -0.7162, -13.6890, 3.0927, 41.7470
0.0698, -0.5148, -0.7473, -22.1646, 26.2634, 67.0518
-0.2013, -0.5313, -0.8264, -24.2988, 1.4463, 57.3567
-0.5911, -0.5333, -1.0053, -9.2378, -65.2000, 12.1738
-0.8905, -0.6395, -0.9279, 10.3963, -73.3098, -42.0335
-0.4251, -0.5856, -0.8712, 17.4695, 4.7390, -55.8140
0.1162, -0.5137, -0.7176, 19.7866, 49.6171, -49.0457
0.4474, -0.5086, -0.6766, 10.9451, 35.7756, -33.9848
0.6398, -0.5193, -0.6071, -1.0061, 15.4707, 1.1372
0.4988, -0.5572, -0.7083, -10.2134, 12.0561, 36.8079
0.1839, -0.5296, -0.7378, -18.0793, 27.7268, 64.8567
-0.0449, -0.5108, -0.7941, -21.6768, 11.8732, 67.6616
-0.5026, -0.5537, -0.9641, -13.3841, -60.5659, 25.4665
-0.9929, -0.6214, -0.9973, 9.5427, -88.1268, -32.0335
-0.6627, -0.5899, -0.8695, 17.8963, -9.9561, -58.3750
0.0140, -0.5303, -0.7238, 22.2256, 50.2268, -53.7409
0.4057, -0.5299, -0.6000, 13.2012, 40.2268, -44.1677
0.6383, -0.5382, -0.6362, 1.4939, 6.3244, -14.0457
0.5500, -0.5622, -0.7037, -9.4817, 0.8976, 28.7591
0.2379, -0.5194, -0.7603, -15.1524, 15.9585, 58.2713
-0.0302, -0.5326, -0.7921, -22.9573, 19.8610, 69.4909
-0.4066, -0.5662, -0.9247, -18.9329, -38.6146, 37.4787
-0.8834, -0.6003, -1.0280, 2.6524, -79.8951, -17.8872
-0.7833, -0.6015, -0.9139, 14.8476, -28.0659, -52.0335
-0.1880, -0.5590, -0.8244, 22.3476, 22.9098, -59.7774
0.1799, -0.5147, -0.7219, 21.4939, 32.4220, -54.5945
0.4310, -0.4932, -0.7461, 11.9817, 15.1049, -37.2774
0.6235, -0.5401, -0.5922, -2.6524, 17.3000, 3.9421
0.5229, -0.5765, -0.6871, -13.6280, 18.7634, 41.7470
0.1982, -0.5112, -0.7366, -22.5915, 23.8854, 66.1982
-0.0894, -0.5251, -0.8170, -27.9573, 4.8610, 64.2470
-0.5484, -0.5152, -0.9935, -17.9573, -61.6024, 24.9177
-0.9931, -0.6271, -1.0023, 6.1890, -79.4683, -30.5091
-0.6340, -0.5969, -0.8877, 15.5183, -8.6756, -56.9726
-0.0021, -0.5479, -0.7534, 21.0061, 48.8244, -51.6067
0.3447, -0.5095, -0.6491, 14.6037, 43.8244, -42.8262
0.6200, -0.5120, -0.6810, 2.8963, 18.2756, -11.4848
0.5624, -0.5390, -0.6902, -8.9329, 6.5073, 29.1860
0.2365, -0.5303, -0.7451, -16.6768, 11.3244, 54.7348
-0.0696, -0.5039, -0.7988, -21.7988, 16.5683, 64.4299
-0.4595, -0.5822, -0.8871, -17.8963, -38.1268, 28.5152
-0.9046, -0.5842, -1.0382, 7.2256, -77.3951, -23.8628
-0.6884, -0.5842, -0.8770, 18.2012, -21.1756, -56.1799
-0.0906, -0.5490, -0.7585, 22.7134, 41.8732, -55.9360
0.3141, -0.5258, -0.6157, 14.1768, 43.6415, -47.0945
0.5898, -0.5524, -0.6257, 0.9451, 13.9463, -23.8628
0.6752, -0.5156, -0.7006, -11.7378, 6.0195, 24.1860
0.3286, -0.5534, -0.7534, -16.1890, 10.5317, 52.2348
0.0985, -0.5557, -0.7661, -23.9329, 30.6537, 74.2470
-0.2048, -0.5153, -0.8326, -20.8232, 6.6902, 62.2348
-0.6398, -0.4849, -1.0288, -6.7988, -58.1878, 13.9421
-0.9475, -0.6163, -0.9400, 15.2744, -64.4073, -44.4726
-0.4187, -0.6037, -0.8424, 20.3354, 3.5805, -62.5213
0.1187, -0.5148, -0.6785, 18.6890, 49.9220, -52.2774
0.5070, -0.5009, -0.6504, 6.3110, 39.4341, -35.3872
0.7760, -0.5377, -0.6177, -7.8354, 16.9951, 9.1250
0.5189, -0.5486, -0.7291, -14.2988, 3.1537, 44.6128
0.1449, -0.5028, -0.7795, -18.7500, 15.8976, 68.6982
-0.1809, -0.5269, -0.8367, -19.5427, 0.7756, 62.7226
-0.6351, -0.5118, -0.9786, -6.3110, -67.1512, 14.9177
-0.9304, -0.5842, -0.9193, 12.4085, -67.4561, -38.8628
-0.5091, -0.5640, -0.8243, 17.2256, -17.0293, -62.2774
0.0280, -0.5332, -0.6830, 17.3476, 28.5805, -57.4604
0.4558, -0.5069, -0.6269, 5.4573, 34.1293, -39.7774
0.7251, -0.5179, -0.6772, -2.1037, 21.5073, -0.1433
0.5922, -0.5715, -0.7270, -10.3963, 15.5927, 46.3811
0.1938, -0.5321, -0.7349, -16.3720, 27.6049, 73.9421
-0.1580, -0.4924, -0.8719, -21.3110, 4.6171, 69.5518
-0.5981, -0.5809, -0.9446, -12.1646, -55.0171, 22.8445
-0.9412, -0.5911, -0.9799, 8.4451, -65.7488, -30.9360
-0.5169, -0.5819, -0.8829, 16.5549, 0.2268, -52.2774
0.0437, -0.5422, -0.7390, 20.3963, 40.6537, -49.8384
0.3590, -0.5130, -0.7022, 13.3841, 30.9585, -40.7530
0.5646, -0.5266, -0.6783, 1.5549, 14.0073, -7.6433
0.5472, -0.5518, -0.7101, -10.1524, 10.7146, 33.1494
0.1926, -0.5353, -0.7424, -17.6524, 16.6293, 56.2591
0.0178, -0.5390, -0.8025, -24.5427, 33.7024, 70.7104
-0.3361, -0.5166, -0.8944, -21.7378, -16.2976, 44.3079
-0.7059, -0.5300, -1.0163, -4.9695, -65.1390, -0.7530
-0.8189, -0.6017, -0.9140, 13.2012, -43.8585, -47.0945
-0.3125, -0.5597, -0.8726, 21.0061, 5.4098, -62.2165
0.1164, -0.5163, -0.7174, 22.5915, 30.5317, -55.8750
0.3903, -0.5271, -0.6680, 16.4329, 17.7268, -46.4848
0.5954, -0.5330, -0.6226, 1.9817, 19.4951, -4.2896
0.5872, -0.5552, -0.6710, -12.7134, 26.6293, 42.1738
0.2657, -0.5271, -0.7132, -22.3476, 22.2390, 66.9299
-0.1118, -0.4903, -0.8136, -25.8841, 5.4098, 69.2470
-0.5559, -0.5192, -0.9851, -15.7622, -60.0780, 26.3811
-0.9944, -0.5466, -1.0229, 9.9695, -74.8951, -28.0701
-0.6876, -0.5784, -0.8634, 20.5793, -14.2244, -61.0579
-0.0133, -0.5325, -0.7639, 25.7012, 35.8366, -60.3262
0.3879, -0.5260, -0.6515, 17.1037, 32.6659, -49.6555
0.6828, -0.5280, -0.6824, 2.7134, 22.2390, -9.3506
0.6653, -0.5732, -0.6893, -11.4939, 14.2512, 35.5884
0.2850, -0.5432, -0.7462, -20.6402, 19.8610, 65.6494
-0.0858, -0.4660, -0.8349, -25.3963, 20.0439, 74.3689
-0.4940, -0.5488, -0.9155, -21.3720, -52.7000, 32.6616
-0.9561, -0.5691, -1.0688, 3.2622, -89.4073, -23.9238
-0.8326, -0.5842, -0.9151, 14.7866, -23.9195, -65.0823
-0.0900, -0.5344, -0.8072, 21.9207, 49.1293, -61.4848
0.3210, -0.5042, -0.7584, 20.6402, 47.9098, -52.5213
0.6071, -0.5231, -0.6916, 10.8841, 23.2146, -25.0213
0.7275, -0.5307, -0.6374, -6.0671, 15.2268, 24.1860
0.3339, -0.5419, -0.7185, -14.3598, 13.4585, 51.8689
0.0271, -0.5166, -0.7219, -23.3841, 20.1659, 68.3323
-0.2913, -0.5538, -0.7977, -21.4939, -13.6756, 52.1128
-0.7214, -0.5341, -0.9795, -5.6402, -77.7610, -0.6311
-0.8828, -0.5982, -0.8977, 11.8598, -45.3829, -44.7165
-0.3261, -0.5346, -0.8328, 18.2012, 14.3732, -56.6677
0.1177, -0.5184, -0.7010, 19.1768, 38.6415, -51.0579
0.4178, -0.5270, -0.6656, 8.3232, 29.5561, -36.1799
0.6328, -0.5643, -0.6593, -4.4207, 13.7634, -2.4604
0.5356, -0.5731, -0.7473, -12.4085, 10.3488, 34.6128
0.2693, -0.5379, -0.7391, -19.3598, 23.9463, 61.8689
-0.0263, -0.4716, -0.8172, -23.0793, 9.4341, 69.9787
-0.5000, -0.5628, -0.9320, -21.7378, -54.9561, 30.2226
-1.0011, -0.5055, -1.0598, 4.0549, -89.5293, -28.3140
-0.8191, -0.6118, -0.9042, 15.7012, -27.5171, -67.9482
-0.0529, -0.5291, -0.7771, 22.7744, 52.7268, -62.5823
0.4053, -0.5113, -0.6753, 17.1037, 58.0927, -49.9604
0.7457, -0.5472, -0.6265, 4.6646, 33.7024, -13.3750
0.7626, -0.5678, -0.6741, -10.5793, 20.9585, 35.5274
0.3082, -0.5131, -0.7181, -19.9085, 8.8854, 60.7104
-0.0339, -0.4592, -0.8014, -27.3476, 8.0927, 73.2713
-0.5234, -0.5055, -0.9309, -22.2866, -43.4317, 36.9909
-0.9685, -0.4987, -1.0679, 2.4695, -90.2000, -22.0335
-0.8536, -0.6225, -0.8779, 16.8598, -27.8220, -62.1555
-0.0869, -0.5238, -0.7800, 23.6890, 53.7024, -56.1799
0.4179, -0.5121, -0.6613, 17.7744, 64.6171, -42.3994
0.7713, -0.5247, -0.5986, 3.8110, 36.6902, -5.0213
0.7045, -0.5737, -0.6734, -11.9207, 2.5439, 33.1494
0.2476, -0.5126, -0.7451, -20.0305, -3.8585, 55.7713
-0.0899, -0.5056, -0.8240, -25.4573, 8.2146, 66.5031
-0.4592, -0.5540, -0.8809, -22.1037, -32.2732, 34.7957
-0.7818, -0.4843, -1.0330, -0.0915, -65.4439, -11.7896
-0.7095, -0.5690, -0.8987, 13.3841, -28.6756, -51.3628
-0.2116, -0.5165, -0.8726, 22.6524, 21.1415, -56.3018
0.1890, -0.5023, -0.7004, 21.1280, 35.2878, -52.0335
0.5013, -0.5609, -0.6800, 14.0549, 24.0073, -32.3994
0.7089, -0.5487, -0.6244, -2.9573, 15.2878, 10.8933
0.5025, -0.5892, -0.7048, -14.6037, 10.8976, 46.0152
0.1672, -0.5195, -0.7478, -24.7256, 16.3244, 64.4909
-0.1802, -0.5004, -0.8340, -27.0427, -2.2732, 59.1250
-0.5372, -0.4908, -0.9995, -17.5915, -57.3341, 19.7957
-0.9240, -0.5449, -1.0160, 7.5915, -60.1390, -27.8262
-0.5584, -0.5169, -0.9080, 18.8110, -9.4683, -55.9969
-0.0692, -0.5230, -0.8372, 27.8963, 27.0561, -58.2530
0.2892, -0.4912, -0.7371, 23.1402, 34.9220, -49.2287
0.5611, -0.5424, -0.6425, 13.9939, 29.0073, -22.4604
0.7428, -0.5698, -0.5906, -5.4573, 23.8854, 22.1738
0.4700, -0.5626, -0.6863, -17.2866, 14.2512, 56.5640
0.1282, -0.5316, -0.7413, -27.2866, 22.4829, 74.8567
-0.1716, -0.5007, -0.7804, -29.0549, -11.6634, 64.9787
-0.5773, -0.5212, -0.9397, -18.6890, -69.8951, 22.7226
-1.0374, -0.5784, -1.0146, 8.1402, -80.6878, -39.7165
-0.6423, -0.5657, -0.9433, 20.7622, -15.8707, -69.0457
-0.0436, -0.5180, -0.8125, 29.0549, 39.0683, -67.8262
0.3500, -0.5017, -0.7590, 26.2500, 39.8000, -65.3872
0.6379, -0.5170, -0.6803, 14.6037, 31.6293, -24.4726
0.8430, -0.5162, -0.6089, -5.6402, 29.2512, 34.9177
0.4148, -0.5606, -0.6673, -17.5915, 16.8122, 62.7226
0.0401, -0.5175, -0.7333, -28.8720, 19.7390, 77.4787
-0.2676, -0.5396, -0.8003, -32.4085, -20.0780, 56.9909
-0.7221, -0.5044, -1.0316, -14.7866, -79.7732, 12.6616
-1.0349, -0.6058, -0.9506, 8.2622, -70.7488, -43.6799
-0.4913, -0.5588, -0.9061, 18.3841, -2.0293, -62.7043
0.0287, -0.5224, -0.7822, 25.1524, 38.3976, -62.6433
0.4164, -0.5280, -0.6967, 20.6402, 30.6537, -52.7652
0.6425, -0.5506, -0.6532, 8.5671, 20.3488, -15.3872
0.7215, -0.5458, -0.6384, -9.0549, 19.1902, 34.1250
0.3410, -0.5479, -0.6890, -20.0915, 10.8976, 62.6006
0.0622, -0.5225, -0.7471, -30.0305, 26.0805, 80.2226
-0.4205, -0.4034, -0.9125, -25.2134, -20.4439, 53.8811
-0.8862, -0.4984, -1.0501, -4.9695, -99.5293, -5.8750
-1.0034, -0.6375, -0.9473, 16.3110, -69.5902, -60.3872
-0.3414, -0.5551, -0.8723, 25.1524, 20.8366, -69.2896
0.2800, -0.5161, -0.7242, 22.9573, 69.1902, -53.4969
0.7056, -0.5396, -0.6210, 10.7622, 55.5317, -22.7652
0.8384, -0.5921, -0.5978, -6.0671, 22.9098, 20.1006
0.4728, -0.6058, -0.6902, -18.1402, 6.4463, 50.2226
0.0206, -0.4895, -0.7209, -26.0061, 13.6415, 66.1982
-0.3092, -0.5237, -0.8279, -25.7622, -15.3829, 47.4177
-0.7230, -0.5416, -1.0063, -9.2378, -76.2976, -0.5701
-0.8769, -0.5626, -0.9108, 11.4939, -44.4683, -40.6311
-0.3602, -0.5123, -0.8633, 21.9207, 7.9098, -58.4360
0.0924, -0.5205, -0.7067, 23.0183, 37.1780, -55.6311
0.4476, -0.5215, -0.6367, 12.8354, 39.4951, -37.1555
0.7403, -0.5527, -0.5917, -2.8354, 31.9951, 6.4421
0.5823, -0.6196, -0.6888, -15.2744, 16.8122, 44.6128
0.2528, -0.5343, -0.7578, -23.1402, 24.6780, 71.0762
-0.1309, -0.4426, -0.8589, -24.3598, 11.8732, 67.0518
-0.5913, -0.5144, -0.9606, -12.8354, -70.4439, 20.2226
-0.9785, -0.6318, -0.9703, 10.5183, -75.9317, -31.2409
-0.5308, -0.5681, -0.8554, 18.0183, -2.7000, -56.1189
0.0340, -0.5165, -0.7400, 20.7622, 42.7878, -53.5579
0.4151, -0.5453, -0.6893, 11.3110, 36.8732, -41.9726
0.6724, -0.5686, -0.6165, -4.0549, 20.7146, -4.0457
0.6125, -0.5803, -0.7164, -13.9939, 10.1049, 37.2348
0.2544, -0.5491, -0.7368, -20.7012, 19.9829, 62.8445
-0.0303, -0.4823, -0.8191, -22.4695, 17.7268, 69.1250
-0.5269, -0.5216, -0.8856, -16.1280, -55.6268, 23.3323
-1.0366, -0.5482, -1.0472, 9.3598, -108.2488, -35.6921
-0.8190, -0.6109, -0.8809, 19.2988, -37.6390, -71.6677
-0.1010, -0.5160, -0.7639, 22.6524, 47.3610, -69.1067
0.4291, -0.4867, -0.6830, 17.5305, 57.9707, -54.2287
0.7704, -0.5181, -0.6368, 6.0061, 39.2512, -12.8262
0.7964, -0.5236, -0.6537, -9.1768, 16.4463, 36.1982
0.2746, -0.4902, -0.7325, -16.3110, 9.1293, 64.7348
-0.0744, -0.4744, -0.7945, -24.0549, 20.4098, 75.1006
-0.3504, -0.5200, -0.8920, -20.8232, -22.8829, 48.5152
-0.7324, -0.5344, -0.9966, -1.6159, -81.3585, 0.0396
-0.8411, -0.6248, -0.8845, 13.2012, -50.3220, -44.5945
-0.2819, -0.5712, -0.8464, 18.8720, 11.7512, -54.8384
0.1619, -0.5414, -0.7000, 18.0793, 32.6049, -50.0823
0.4897, -0.5479, -0.7108, 9.2988, 19.7390, -36.4848
0.6636, -0.5538, -0.6553, -4.7256, 11.2024, 3.6982
0.4936, -0.6008, -0.7455, -14.2988, 13.0317, 43.5152
0.1675, -0.5589, -0.7414, -20.5183, 29.0073, 66.6250
-0.1696, -0.4840, -0.8655, -20.0305, -0.6268, 56.5031
-0.7279, -0.5690, -0.9692, -5.3963, -80.6878, 1.3811
-1.0026, -0.5791, -0.9261, 14.2988, -69.5902, -49.2287
-0.4360, -0.5545, -0.8567, 20.1524, 7.4829, -65.8140
0.1341, -0.4933, -0.6791, 18.9329, 56.0195, -54.8994
0.6043, -0.5058, -0.5980, 5.0915, 48.2756, -30.1433
0.8389, -0.5326, -0.6437, -11.7988, 24.7390, 16.1982
0.4932, -0.5584, -0.7145, -19.4207, 8.0927, 49.3079
0.1135, -0.5208, -0.7480, -26.9817, 22.4829, 69.3079
-0.2590, -0.5529, -0.7787, -29.1159, -16.1756, 53.7591
-0.6934, -0.5394, -0.9785, -11.9207, -86.2366, 3.9421
-1.0064, -0.5752, -0.9491, 8.2622, -69.8951, -48.7409
-0.4800, -0.5241, -0.9205, 17.0427, 2.7878, -66.4238
0.1450, -0.5146, -0.7169, 19.1159, 53.7024, -55.0823
0.5863, -0.5080, -0.6691, 13.3232, 50.7146, -33.4969
0.8214, -0.5434, -0.6515, -1.9207, 26.1415, 11.4421
0.5204, -0.5752, -0.7012, -13.6280, 9.0073, 44.8567
0.1187, -0.4975, -0.7257, -24.5427, 23.3366, 69.5518
-0.1867, -0.4663, -0.8022, -28.9329, 3.5805, 63.6982
-0.5508, -0.5439, -0.9164, -23.3232, -56.2976, 21.6250
-0.9842, -0.5355, -1.0164, 1.2500, -80.9927, -32.7652
-0.6731, -0.5352, -0.9519, 13.8110, -24.0415, -63.6799
-0.0866, -0.5138, -0.8235, 24.3598, 34.4341, -63.8628
0.3732, -0.4733, -0.7996, 24.4207, 51.5073, -50.9360
0.7555, -0.5348, -0.6235, 9.4817, 43.7634, -11.1189
0.8293, -0.5445, -0.6401, -9.3598, 24.8610, 39.9177
0.3664, -0.5670, -0.6950, -20.5183, 10.8366, 63.5762
-0.0041, -0.4822, -0.7885, -27.5305, 9.9220, 73.6982
-0.3906, -0.5461, -0.9218, -25.2744, -29.0415, 46.1982
-0.7836, -0.4852, -1.0446, -5.7012, -81.2366, -6.3018
-0.9218, -0.5734, -0.9413, 12.4085, -52.8220, -54.7165
-0.3353, -0.5120, -0.8857, 23.1402, 6.4463, -68.0701
0.1708, -0.4996, -0.7091, 22.1646, 39.0073, -59.7774
0.5690, -0.5205, -0.6716, 13.3232, 34.5561, -37.3994
0.7452, -0.5297, -0.6118, 0.0305, 20.7756, 4.6128
0.5572, -0.5636, -0.6984, -12.6524, 13.0927, 47.6616
0.1689, -0.4945, -0.7480, -22.4695, 18.3976, 68.9421
-0.1962, -0.4677, -0.8122, -24.3598, -0.1390, 64.1860
-0.6449, -0.5181, -0.9749, -14.9695, -72.5780, 16.5030
-1.0969, -0.5648, -0.9420, 10.2744, -76.6634, -42.1555
-0.5452, -0.5437, -0.8696, 17.2866, 0.4098, -61.6677
0.0777, -0.5057, -0.7114, 21.4329, 51.7512, -53.9238
0.5251, -0.5155, -0.6554, 11.9817, 40.8366, -37.9482
0.7417, -0.5388, -0.6846, 0.3963, 17.9098, 4.9787
0.5722, -0.5842, -0.7127, -9.5427, 10.1049, 43.3323
0.1948, -0.5433, -0.7469, -17.4085, 21.6293, 69.2470
-0.1576, -0.4758, -0.8098, -21.3110, 8.1537, 66.9299
-0.5723, -0.5318, -0.9488, -13.9939, -61.1756, 21.4421
-1.0585, -0.5714, -0.9852, 11.3110, -80.5049, -37.0335
-0.6975, -0.5749, -0.8694, 19.6646, -4.4073, -65.5701
0.0359, -0.5228, -0.6970, 21.6159, 58.8854, -59.4726
0.4728, -0.5084, -0.6431, 13.8110, 45.6537, -49.8384
0.7460, -0.5532, -0.6039, -0.1524, 19.1293, -12.0945
0.7039, -0.5577, -0.7008, -11.1280, 9.6780, 36.7470
0.2217, -0.5054, -0.7650, -18.7500, 15.6537, 62.9665
-0.0530, -0.4371, -0.8717, -21.4329, 19.0683, 73.8201
-0.4008, -0.5159, -0.9560, -17.1037, -38.4927, 36.8689
-0.8830, -0.4928, -1.0868, 5.3354, -83.6756, -15.4482
-0.7945, -0.5778, -0.8852, 17.9573, -25.3829, -55.6311
-0.1415, -0.5179, -0.7860, 22.2866, 31.3854, -57.5213
0.2861, -0.5058, -0.6937, 15.3963, 39.0073, -51.9116
0.5953, -0.5385, -0.6264, 2.7744, 23.2756, -25.9360
0.7345, -0.5402, -0.6905, -9.8476, 10.3488, 18.6982
0.4269, -0.5505, -0.7402, -16.7988, 6.8732, 54.1250
0.0704, -0.5020, -0.8026, -23.8110, 15.0439, 69.3689
-0.3266, -0.5352, -0.8747, -23.2622, -19.9561, 46.4421
-0.8237, -0.5116, -1.0404, -4.5427, -79.4683, -4.5945
-0.8999, -0.5880, -0.9254, 13.6280, -41.0537, -49.4116
-0.2857, -0.5178, -0.8106, 19.7256, 30.6537, -55.8140
0.2143, -0.4921, -0.7035, 17.4085, 48.3366, -49.6555
0.5461, -0.5213, -0.6147, 6.4329, 26.8122, -30.5701
0.7131, -0.5293, -0.6499, -8.0793, 7.6049, 10.2226
0.4653, -0.5549, -0.7326, -13.7500, 0.8976, 46.1372
0.1272, -0.5362, -0.7678, -19.6037, 18.2146, 67.0518
-0.2386, -0.5128, -0.8265, -18.5061, 0.6537, 58.3323
-0.6704, -0.4758, -1.0057, -3.7500, -68.1878, 7.1738
-0.9368, -0.5982, -0.9556, 16.9207, -66.3585, -46.6067
-0.4437, -0.5591, -0.8416, 23.3841, 12.7268, -60.6311
0.1543, -0.4960, -0.7110, 21.9817, 53.8244, -52.8262
0.5914, -0.5360, -0.5994, 6.0671, 40.4707, -30.3262
0.8254, -0.5244, -0.6064, -10.7012, 15.7146, 13.6372
0.5123, -0.5471, -0.7239, -17.5915, 0.7756, 46.5640
0.1517, -0.5243, -0.7479, -26.7988, 18.7634, 70.2226
-0.1924, -0.5083, -0.7510, -27.8354, 13.8854, 70.7713
-0.5379, -0.5096, -0.9661, -19.9085, -52.6390, 27.7226
-0.9399, -0.5563, -1.0428, 3.5061, -79.1634, -28.7409
-0.6241, -0.5553, -0.8990, 11.3720, -13.0659, -58.4969
-0.0380, -0.5195, -0.8348, 15.7012, 39.8000, -58.4360
0.3310, -0.4989, -0.7759, 11.6768, 35.6537, -50.9360
0.5848, -0.5289, -0.6616, 0.5793, 26.0195, -20.9360
0.7254, -0.5199, -0.6851, -14.5427, 18.3976, 25.8323
0.3243, -0.4872, -0.7418, -21.2500, 16.8122, 55.2835
0.0347, -0.4543, -0.8251, -25.5793, 25.6537, 69.3689
-0.3543, -0.4729, -0.9355, -20.8841, -22.5171, 41.6860
-0.7945, -0.4787, -1.0289, -0.3354, -83.8585, -8.9848
-0.8746, -0.5369, -0.8962, 17.7134, -37.8220, -51.4848
-0.2210, -0.4861, -0.8127, 22.3476, 22.6049, -56.7287
0.2062, -0.4734, -0.7221, 18.7500, 36.3854, -49.2287
0.5188, -0.5018, -0.6813, 7.4085, 19.9829, -31.8506
0.6835, -0.5329, -0.6691, -6.6768, 5.8366, 4.9787
0.5279, -0.5530, -0.7501, -16.0061, 4.3732, 44.6128
0.2280, -0.4999, -0.7731, -24.2378, 18.3366, 70.1616
-0.1067, -0.4609, -0.8041, -25.8841, 14.4951, 74.1250
-0.5188, -0.4951, -0.9798, -19.3598, -47.5780, 31.6250
-0.9824, -0.5070, -1.0832, 8.0793, -85.2000, -27.1555
-0.7362, -0.5802, -0.8908, 18.8720, -17.1512, -59.5945
-0.0645, -0.5054, -0.7875, 23.8720, 46.0805, -57.3384
0.3670, -0.4793, -0.7125, 16.4939, 45.6537, -47.4604
0.6548, -0.5236, -0.6324, 3.6280, 28.8854, -15.3872
0.7573, -0.5216, -0.7145, -11.1890, 14.9220, 28.3323
0.3226, -0.4871, -0.7458, -16.9817, 9.8610, 58.8811
-0.0296, -0.4269, -0.8314, -20.6402, 13.1537, 69.4299
-0.5209, -0.4580, -0.9619, -13.5061, -34.9561, 33.2104
-0.8864, -0.4867, -1.0448, 10.0915, -82.6390, -21.6067
-0.7570, -0.5390, -0.8757, 21.9207, -26.9683, -57.8262
-0.1127, -0.4921, -0.7771, 25.8841, 31.5073, -61.3018
0.3019, -0.5150, -0.6948, 18.5061, 31.9951, -55.6311
0.5417, -0.5099, -0.6860, 7.7744, 12.4829, -28.6799
0.6830, -0.4818, -0.6959, -6.3720, -0.6878, 10.8933
0.3566, -0.5540, -0.7875, -8.5061, -1.7244, 40.5884
0.0237, -0.4848, -0.8152, -11.2500, 12.9098, 58.2104
-0.2094, -0.5847, -0.8595, -13.7500, 0.2878, 47.4787
-0.5692, -0.5598, -0.9423, -4.7256, -55.5049, 9.7957
-0.7930, -0.6140, -0.9144, 9.7256, -60.2610, -40.8140
-0.3492, -0.6171, -0.7701, 14.1768, -1.3585, -58.1921
0.1730, -0.5181, -0.7333, 11.2500, 32.3610, -45.3872
0.4575, -0.4854, -0.7733, 7.2256, 18.0317, -30.0213
0.6413, -0.4876, -0.6680, -5.1524, 5.7756, 10.7104
0.3198, -0.5476, -0.7883, -7.5915, -4.5902, 30.2835
0.0178, -0.4431, -0.8067, -9.1768, 3.4585, 49.7957
-0.2440, -0.5395, -0.8302, -11.4939, -2.8220, 39.0031
-0.5303, -0.5424, -0.8769, -4.6646, -44.9561, 4.1860
-0.7026, -0.5925, -0.8704, 6.7988, -51.6024, -34.1067
-0.3326, -0.5820, -0.8275, 14.0549, -3.3098, -46.6677
0.1619, -0.5119, -0.6972, 11.3720, 30.4098, -35.2652
0.5251, -0.5042, -0.7183, 5.0305, 22.9707, -8.2530
0.5337, -0.5320, -0.7678, -3.9939, 5.3488, 25.8323
0.2462, -0.5180, -0.7824, -11.4939, 0.8976, 47.4177
-0.0959, -0.4988, -0.8105, -16.5549, 12.9707, 58.1494
-0.3452, -0.5155, -0.9196, -19.8476, -40.5659, 30.0396
-0.9136, -0.5878, -1.0046, 2.3476, -88.2488, -25.2652
-0.8056, -0.5950, -0.9105, 14.0549, -33.7976, -60.8140
-0.0949, -0.5036, -0.7456, 18.2012, 56.5683, -47.3384
0.3726, -0.4685, -0.7432, 13.2012, 54.3732, -33.8018
0.6608, -0.4956, -0.5973, -0.9451, 21.9341, -3.4970
0.5083, -0.5230, -0.7565, -9.6037, 0.6537, 30.8933
0.1362, -0.4773, -0.8040, -13.3841, -2.8220, 49.3079
-0.1959, -0.5216, -0.7823, -17.1646, 23.2756, 61.8079
-0.3932, -0.5156, -0.9186, -16.0671, -29.5293, 29.9177
-0.8580, -0.6318, -0.9528, 2.8354, -73.7366, -25.7530
-0.6975, -0.5911, -0.9249, 13.9329, -30.5049, -58.0701
-0.0167, -0.5350, -0.6958, 15.8232, 47.2390, -48.6799
0.4313, -0.4738, -0.7364, 11.0671, 44.8000, -31.9116
0.7106, -0.4713, -0.6119, -2.5915, 21.3854, 7.1128
0.4515, -0.5468, -0.7379, -11.3110, -7.1512, 32.6006
0.1014, -0.4421, -0.7629, -16.7378, -1.0537, 56.3201
-0.2000, -0.5079, -0.7876, -21.1890, 18.0317, 64.9177
-0.4959, -0.5078, -0.9135, -18.3232, -35.6878, 30.9543
-0.8922, -0.5545, -1.0422, 4.1768, -74.7732, -22.7043
-0.6907, -0.5592, -0.9477, 16.9817, -24.1024, -52.8262
-0.1317, -0.5080, -0.8636, 26.9207, 45.5927, -46.4238
0.3517, -0.5042, -0.6458, 17.1037, 57.2390, -30.5701
0.5584, -0.5155, -0.6990, 6.7988, 20.1659, -7.8262
0.4650, -0.5430, -0.6992, -7.7134, 2.9098, 23.3323
0.1764, -0.5223, -0.7714, -16.8598, 11.9341, 49.3689
-0.0151, -0.5646, -0.7908, -22.9573, 32.7268, 65.1616
-0.3927, -0.5030, -0.8990, -18.2012, -15.4439, 36.6250
-0.8153, -0.5888, -1.0307, -0.3354, -71.9073, -17.9482
-0.7680, -0.5747, -0.9109, 15.8232, -33.0659, -53.8628
-0.2301, -0.5078, -0.8552, 25.0915, 25.8976, -57.3994
0.1689, -0.4738, -0.7516, 22.4695, 44.5561, -49.0457
0.4811, -0.4934, -0.6561, 9.5427, 27.9707, -27.3384
0.6214, -0.5095, -0.6737, -4.1159, 15.6537, 11.9299
0.3955, -0.5159, -0.7359, -13.8110, 20.5317, 47.3567
0.1821, -0.4924, -0.7705, -23.4451, 46.0195, 76.2591
-0.2182, -0.5062, -0.7915, -27.5915, -0.0171, 61.0152
-0.7445, -0.4855, -1.0702, -10.6402, -80.9317, 7.6006
-1.0932, -0.6397, -0.9428, 12.4085, -67.2122, -48.8018
-0.4677, -0.5404, -0.9263, 22.4695, 12.9707, -61.5457
0.1246, -0.4956, -0.7026, 22.9573, 63.4585, -55.5701
0.5375, -0.5121, -0.6212, 14.1768, 48.7634, -38.7409
0.8193, -0.5490, -0.5323, -6.0671, 25.4098, 5.8323
0.5958, -0.5748, -0.6378, -20.0305, 9.8000, 42.4177
0.1883, -0.4934, -0.7572, -28.2622, 11.0195, 67.5396
-0.1679, -0.4224, -0.8763, -27.5305, 3.7024, 70.6494
-0.5570, -0.4993, -0.9713, -17.1037, -57.4561, 27.2957
-0.9910, -0.4898, -1.0800, 10.3354, -88.6756, -28.6189
-0.7203, -0.5860, -0.9257, 23.4451, -18.9195, -63.3750
-0.0482, -0.5065, -0.8002, 27.8354, 45.0439, -60.9360
0.4115, -0.5140, -0.6950, 18.8720, 44.7390, -48.9848
0.7192, -0.5474, -0.6552, 2.5915, 30.4707, -11.4848
0.7213, -0.5380, -0.6791, -13.3841, 15.1049, 34.3689
0.2737, -0.4973, -0.7714, -21.9817, 5.8366, 60.2835
-0.0802, -0.4869, -0.8086, -27.3476, 12.4220, 73.8201
-0.4368, -0.4776, -0.9446, -23.6280, -37.5171, 39.6738
-0.8993, -0.4512, -1.0872, 1.6768, -85.2610, -12.6433
-0.8817, -0.6014, -0.8839, 18.9939, -32.3341, -57.5823
-0.2188, -0.5098, -0.8488, 26.6768, 38.9463, -56.6067
0.2313, -0.4853, -0.7466, 21.7988, 53.3366, -49.4116
0.5983, -0.5119, -0.6226, 6.7378, 34.9220, -25.6311
0.7748, -0.5410, -0.6331, -9.6037, 21.1415, 18.4543
0.4968, -0.5519, -0.7045, -19.0549, 14.3732, 52.7226
0.1967, -0.5013, -0.7578, -27.6524, 27.6049, 79.5518
-0.2521, -0.4668, -0.8216, -29.0549, -12.2732, 62.9665
-0.7578, -0.4376, -1.0688, -10.9451, -99.2854, 5.5884
-1.1994, -0.6185, -0.9539, 14.8476, -80.3829, -52.9482
-0.5236, -0.5318, -0.8854, 23.4451, 32.7878, -59.3506
0.1955, -0.4983, -0.6559, 21.1890, 82.6659, -50.7530
0.6111, -0.5393, -0.6130, 9.4207, 51.2024, -33.2530
0.8167, -0.5300, -0.6204, -8.0183, 19.3732, 8.3933
0.5339, -0.5379, -0.7253, -18.0183, 1.0805, 42.9055
0.1944, -0.4600, -0.8121, -24.9085, 16.5073, 72.3567
-0.1725, -0.4650, -0.7598, -28.5061, -2.5780, 66.1982
-0.6394, -0.4431, -1.0117, -15.7012, -85.5659, 16.1982
-1.1264, -0.5625, -0.9905, 11.7378, -96.2366, -41.4238
-0.6479, -0.5747, -0.8923, 20.8841, 3.7024, -59.9604
-0.0083, -0.5058, -0.7922, 25.3354, 71.5073, -55.8750
0.4353, -0.4965, -0.7490, 17.4085, 56.8122, -45.9360
0.7063, -0.5430, -0.6459, 0.8841, 25.6537, -13.4360
0.7090, -0.5558, -0.6949, -12.7134, 9.2512, 28.6982
0.3352, -0.4788, -0.7636, -20.0915, 5.4707, 55.6494
0.0547, -0.4216, -0.8085, -24.8476, 26.0805, 76.9909
-0.3627, -0.4112, -0.8860, -22.7134, -27.2732, 49.6128
-0.8777, -0.4370, -1.0532, -0.2134, -100.2000, -4.4116
-1.0325, -0.6309, -0.9183, 18.4451, -55.9927, -54.8994
-0.3247, -0.5335, -0.8630, 26.6159, 33.5195, -57.0335
0.2101, -0.5275, -0.6588, 22.8963, 67.2390, -53.8018
0.5690, -0.5576, -0.6318, 9.1768, 43.2146, -37.4604
0.8433, -0.5592, -0.6237, -8.8110, 16.1415, 6.6250
0.5342, -0.5480, -0.7394, -16.5549, -0.2000, 42.4177
0.1199, -0.4678, -0.7882, -18.3232, 15.2878, 65.8933
-0.1920, -0.4392, -0.8657, -19.2378, 2.6659, 60.8933
-0.6013, -0.5006, -0.9618, -7.4695, -65.6878, 17.4787
-0.9671, -0.5708, -0.9467, 12.8354, -68.6146, -33.1921
-0.5784, -0.5736, -0.8492, 21.3110, -2.6390, -59.0457
-0.0264, -0.5305, -0.7516, 24.2988, 37.3000, -61.9726
0.3238, -0.5479, -0.6794, 15.2744, 29.9829, -57.9482
0.7345, -0.5220, -0.6257, -2.4085, 16.8732, -19.6555
0.7601, -0.5567, -0.7164, -14.9085, 16.1415, 31.0152
0.3221, -0.5072, -0.7869, -20.1524, 8.6415, 57.2957
0.0820, -0.5148, -0.8019, -26.6159, 31.0195, 81.3201
-0.2043, -0.4330, -0.8383, -25.0915, -3.7976, 66.9909
-0.6143, -0.4542, -0.9703, -14.0549, -72.0902, 23.8201
-1.0355, -0.5449, -0.9976, 9.7866, -77.9439, -33.5579
-0.6544, -0.5477, -0.8663, 18.3232, -4.0415, -60.3262
-0.0386, -0.5050, -0.8033, 24.0549, 44.9829, -58.0701
0.2973, -0.5076, -0.7227, 19.1159, 33.5195, -57.6433
0.5702, -0.5592, -0.6604, 7.4085, 23.2756, -27.5823
0.7784, -0.5407, -0.6932, -6.3720, 18.8854, 22.1128
0.3982, -0.5223, -0.7599, -12.9573, 6.9341, 52.9055
0.0197, -0.4797, -0.7911, -18.9329, 10.4707, 66.3811
-0.3377, -0.5079, -0.8337, -20.0915, -23.6756, 47.5396
-0.7837, -0.5226, -1.0015, -4.3598, -82.7610, -1.7896
-0.9346, -0.5808, -0.9117, 11.7988, -41.5415, -50.0213
-0.3148, -0.5324, -0.8505, 19.2988, 25.3488, -59.1067
0.1842, -0.5083, -0.7303, 19.2378, 52.7878, -51.7287
0.5701, -0.5202, -0.6597, 6.9207, 34.7390, -31.6677
0.7973, -0.5155, -0.6702, -5.7622, 16.5683, 15.9543
0.4853, -0.5543, -0.7394, -12.2256, 9.4341, 47.4787
0.1758, -0.5303, -0.7668, -20.5183, 27.7268, 74.6128
-0.1896, -0.4900, -0.7390, -23.3841, 2.3000, 65.8933
-0.6751, -0.5447, -0.9804, -12.9573, -78.3707, 16.3811
-1.0667, -0.5889, -0.9509, 11.3110, -82.2122, -41.5457
-0.5634, -0.5648, -0.8456, 16.5549, 8.6415, -58.6189
0.0763, -0.5190, -0.7283, 18.5061, 58.6415, -54.1677
0.4380, -0.5038, -0.7429, 11.7378, 40.0439, -44.1067
0.6600, -0.5173, -0.6686, -1.7378, 18.5805, -10.9360
0.6325, -0.5332, -0.7436, -11.5549, 7.2390, 29.8567
0.2270, -0.4923, -0.7538, -16.4939, 9.2512, 56.0152
-0.0280, -0.4666, -0.8147, -19.6037, 13.3976, 68.5762
-0.4504, -0.4957, -0.9034, -16.0671, -38.3707, 34.9787
-0.8720, -0.5332, -1.0537, 3.0793, -79.3463, -13.8018
-0.7981, -0.5725, -0.8942, 17.2866, -28.6146, -57.3994
-0.1920, -0.5025, -0.8618, 26.7988, 27.8488, -63.6799
0.1890, -0.4851, -0.7575, 25.5183, 40.4098, -60.0823
0.5414, -0.5189, -0.6801, 10.6402, 27.9098, -39.5335
0.8357, -0.5112, -0.6141, -6.8598, 19.6171, 11.9909
0.5214, -0.5469, -0.7291, -15.0305, 7.2390, 46.9299
0.1379, -0.5289, -0.7903, -20.7622, 18.6415, 70.7104
-0.1386, -0.4403, -0.8684, -22.7134, 3.6415, 68.8201
-0.5849, -0.5318, -0.9658, -14.1768, -67.1512, 19.3689
-0.9779, -0.5230, -0.9860, 9.4817, -77.1512, -29.2287
-0.6268, -0.5775, -0.8820, 17.7744, -5.0171, -58.4969
0.0056, -0.5310, -0.7187, 22.5305, 49.8610, -53.8018
0.4163, -0.5393, -0.6479, 11.7988, 48.4585, -42.0335
0.7904, -0.5363, -0.6454, -5.5793, 26.9951, -0.7530
0.6595, -0.5813, -0.7361, -15.2134, 5.5927, 37.5396
0.2602, -0.5261, -0.7332, -22.9573, 4.9829, 61.9299
-0.0817, -0.4496, -0.8362, -23.8110, 8.8244, 72.4787
-0.5051, -0.5029, -0.9338, -19.7256, -56.3585, 27.4177
-0.9898, -0.4862, -1.0700, 6.6768, -96.8463, -25.6311
-0.8148, -0.5802, -0.8881, 19.9695, -19.4683, -60.6311
-0.1549, -0.4998, -0.8211, 26.4329, 53.2146, -57.0335
0.3055, -0.4929, -0.7043, 20.0305, 54.5561, -52.3384
0.6059, -0.5387, -0.6294, 5.2134, 29.3732, -29.4726
0.8211, -0.5347, -0.6737, -10.3963, 13.4585, 17.7835
0.4554, -0.5302, -0.7400, -16.8598, 5.3488, 46.3201
0.1113, -0.5062, -0.7944, -23.3841, 17.6049, 68.7591
-0.2128, -0.4756, -0.8172, -24.7256, -12.0902, 57.6616
-0.7092, -0.4583, -1.0559, -7.2866, -87.1512, 5.7713
-1.0709, -0.5878, -0.9579, 15.1524, -65.8707, -42.3384
-0.4586, -0.5170, -0.8784, 24.5427, 24.4341, -57.0945
0.1516, -0.5299, -0.6665, 24.5427, 64.8000, -49.6555
0.5303, -0.5508, -0.5897, 10.8232, 43.3366, -38.1921
0.8094, -0.5707, -0.6024, -8.3841, 16.9951, 3.0274
0.5947, -0.5866, -0.7205, -17.3476, 3.5805, 40.2226
0.2121, -0.5086, -0.7697, -24.2988, 12.3000, 64.7957
-0.0933, -0.4534, -0.8180, -24.9695, 6.0805, 71.3811
-0.5088, -0.4640, -0.9807, -16.7988, -63.4317, 26.6250
-0.9891, -0.4832, -1.0562, 9.9695, -92.5171, -25.9970
-0.7469, -0.5829, -0.8534, 20.2134, -10.7488, -54.1067
-0.0957, -0.5041, -0.7906, 23.7500, 48.7024, -52.0335
0.3232, -0.5157, -0.6788, 14.9085, 44.0073, -49.1067
0.5704, -0.5451, -0.6732, 1.8598, 19.1293, -26.2409
0.7284, -0.5259, -0.7380, -12.4695, 11.4463, 18.2713
0.3988, -0.5329, -0.7797, -14.9085, 4.1902, 47.2348
0.1466, -0.5089, -0.8192, -21.0671, 19.0683, 68.5152
-0.2429, -0.4579, -0.8385, -18.2622, -11.2976, 55.0396
-0.6757, -0.4468, -1.0345, -5.6402, -80.7488, 4.2470
-0.9904, -0.5649, -0.9271, 13.5061, -56.6024, -41.4238
-0.4660, -0.5097, -0.8589, 22.4085, 18.6415, -56.7896
0.0314, -0.5097, -0.7419, 29.1768, 51.0805, -58.1311
0.3270, -0.5494, -0.6954, 23.8110, 38.3976, -51.3628
0.7104, -0.5642, -0.5804, 5.3963, 24.8000, -16.2409
0.7512, -0.5768, -0.6630, -10.5793, 18.9463, 33.8811
0.3060, -0.5396, -0.7389, -18.3841, 7.4829, 54.6738
-0.0034, -0.5404, -0.7985, -26.3720, 10.7756, 67.2348
-0.3144, -0.4601, -0.8927, -20.4573, -25.9927, 49.5518
-0.7554, -0.5087, -1.0085, -1.3720, -74.7122, -2.0945
-0.8881, -0.5499, -0.9171, 16.1890, -39.5293, -42.9482
-0.2611, -0.5238, -0.8472, 25.0915, 16.7512, -55.1433
0.1636, -0.5211, -0.6680, 24.7256, 48.2146, -46.2409
0.5218, -0.5526, -0.6264, 13.0183, 39.6780, -28.3750
0.7621, -0.5525, -0.6426, -3.9939, 17.3000, 10.3445
0.4996, -0.5880, -0.6951, -15.3963, 1.0805, 39.6128
0.1545, -0.5097, -0.7711, -24.1159, 13.7024, 62.0518
-0.1520, -0.4581, -0.8654, -26.7988, -6.9683, 56.1372
-0.6000, -0.5068, -1.0320, -14.2988, -71.6024, 9.8567
-0.9315, -0.5578, -0.9932, 9.6037, -69.7732, -33.4969
-0.5401, -0.5462, -0.8916, 18.8110, -0.6878, -54.2896
0.0338, -0.5355, -0.7449, 21.2500, 47.1171, -50.6921
0.4225, -0.5428, -0.6866, 13.1402, 47.6049, -35.2043
0.7615, -0.5502, -0.5874, -5.2134, 30.4707, 4.0030
0.5964, -0.5835, -0.7064, -17.5305, 1.0805, 38.4543
0.1819, -0.5142, -0.7493, -24.6037, -0.8098, 57.8445
-0.1829, -0.4548, -0.8717, -24.3598, -1.1756, 60.1616
-0.5922, -0.5095, -0.9473, -13.5671, -60.6878, 13.5762
-0.9379, -0.5584, -0.9663, 10.6402, -68.4927, -31.6067
-0.5691, -0.5712, -0.8784, 20.0915, -13.3098, -56.7287
-0.0646, -0.5109, -0.7969, 25.6402, 29.9829, -58.3140
0.3345, -0.5090, -0.7433, 17.5305, 41.7512, -45.9360
0.7120, -0.5576, -0.5843, 0.3963, 36.5683, -8.3750
0.7609, -0.5827, -0.6966, -15.2134, 17.1780, 35.8933
0.3312, -0.5027, -0.7453, -23.1402, 0.5927, 57.2957
-0.0836, -0.4689, -0.8325, -27.3476, 2.6049, 68.3323
-0.5681, -0.4799, -0.9332, -20.5793, -52.2732, 29.2470
-0.9731, -0.5063, -1.0609, 5.7012, -79.2244, -18.4970
-0.7513, -0.5577, -0.8785, 17.4085, -15.6268, -54.1677
-0.1322, -0.5222, -0.8181, 24.1159, 42.1171, -55.0213
0.2912, -0.5077, -0.6750, 17.1646, 48.5195, -46.3018
0.5887, -0.5669, -0.6333, 4.6037, 29.1902, -22.8872
0.7772, -0.5616, -0.6605, -14.0549, 15.1659, 22.8445
0.3855, -0.5233, -0.7424, -20.2744, 0.7146, 48.3323
0.0975, -0.5192, -0.7919, -28.0793, 9.9220, 66.6860
-0.3241, -0.4638, -0.8622, -24.4817, -27.1512, 48.7591
-0.7708, -0.4371, -1.0500, -6.2500, -85.8707, -1.1189
-1.0002, -0.5842, -0.9319, 13.3232, -53.2488, -51.2409
-0.3402, -0.5263, -0.8526, 20.5183, 28.2756, -56.2409
0.1518, -0.5006, -0.7407, 22.1646, 54.3122, -54.4726
0.4167, -0.5310, -0.7604, 13.5061, 30.9585, -42.7043
0.6646, -0.5579, -0.6223, -3.4451, 18.2146, -6.3628
0.6336, -0.5685, -0.7228, -15.4573, 14.9220, 38.0274
0.2535, -0.5120, -0.7259, -23.0183, 17.9098, 62.1738
-0.0402, -0.4391, -0.8204, -26.6159, 6.4463, 68.8201
-0.5405, -0.4628, -0.9723, -18.0793, -63.6146, 25.1616
-1.0621, -0.5219, -1.0171, 8.7500, -87.6390, -29.1677
-0.7191, -0.5445, -0.8951, 19.9695, 1.6293, -54.1067
-0.0628, -0.4884, -0.8116, 29.9695, 62.6049, -51.6067
0.3531, -0.4895, -0.7112, 27.2866, 55.0439, -43.1921
0.6514, -0.5736, -0.5612, 11.0671, 30.1659, -17.4604
0.7590, -0.5631, -0.6428, -8.2012, 13.5805, 23.8811
0.3628, -0.5443, -0.7192, -18.3232, 6.6293, 49.3689
0.0875, -0.5145, -0.7996, -26.6159, 18.1537, 67.7226
-0.2916, -0.4699, -0.9113, -20.1524, -32.2122, 43.4543
-0.7725, -0.4565, -1.0756, 0.7622, -91.7854, -5.4482
-0.9461, -0.5878, -0.9249, 18.2012, -51.4195, -51.7287
-0.3124, -0.5380, -0.8586, 22.9573, 25.0439, -59.4116
0.1969, -0.5106, -0.6999, 20.4573, 52.3000, -52.8872
0.5644, -0.5570, -0.6119, 5.3354, 35.5317, -34.8384
0.8326, -0.5601, -0.6074, -11.9207, 16.6902, 7.2348
0.5300, -0.5626, -0.7468, -20.0915, 1.8732, 41.0762
0.1467, -0.4937, -0.8006, -23.8110, 10.5317, 65.2226
-0.2132, -0.4347, -0.8809, -21.5549, -10.8707, 57.2957
-0.6600, -0.4976, -1.0148, -6.6159, -81.7244, 7.5396
-1.0289, -0.5667, -0.9385, 16.6768, -64.5902, -42.4604
-0.4309, -0.5377, -0.8673, 22.5305, 19.8610, -55.9360
0.1184, -0.5129, -0.6844, 21.6768, 57.7878, -50.5701
0.4897, -0.5585, -0.5773, 7.2256, 41.5683, -38.6189
0.7692, -0.5515, -0.6262, -9.0549, 17.1171, -2.2165
0.5803, -0.5565, -0.7503, -17.4085, -0.3220, 34.9177
0.2159, -0.4777, -0.7904, -20.3963, 10.2878, 62.3567
-0.0853, -0.4151, -0.8721, -21.0671, 2.1780, 67.1738
-0.5329, -0.4895, -1.0027, -11.0671, -65.3829, 24.3689
-1.0032, -0.5272, -0.9927, 12.5305, -82.3951, -28.6189
-0.6732, -0.5811, -0.8705, 19.8476, -0.2610, -54.6555
-0.0059, -0.5297, -0.7354, 20.8232, 56.9341, -51.2409
0.3727, -0.5291, -0.7096, 12.2866, 46.2024, -45.4482
0.6844, -0.5462, -0.6451, -4.6037, 22.4220, -13.9238
0.6800, -0.5449, -0.7330, -14.1159, 7.6659, 26.3201
0.2896, -0.5020, -0.7892, -18.2622, 5.3488, 51.6860
0.0630, -0.4959, -0.7920, -23.4451, 17.8488, 67.5396
-0.3460, -0.4523, -0.8959, -18.4451, -32.2122, 42.0518
-0.8033, -0.4414, -1.0603, 1.9207, -92.1512, -10.3262
-0.9310, -0.5946, -0.9025, 16.7378, -42.5780, -54.2896
-0.2645, -0.5287, -0.8390, 21.2500, 34.3732, -57.6433
0.2574, -0.5017, -0.6805, 16.9817, 59.8000, -49.7165
0.5922, -0.5391, -0.6237, 2.5915, 32.9707, -31.2409
0.7821, -0.5444, -0.6605, -11.7378, 11.8122, 11.7470
0.4734, -0.5364, -0.7513, -16.9207, 6.3244, 43.5152
0.1598, -0.4998, -0.8105, -22.7134, 20.1659, 67.1128
-0.1878, -0.4486, -0.8193, -22.2256, -1.6024, 61.2591
-0.5952, -0.4630, -0.9921, -9.7256, -75.0780, 15.7713
-0.9980, -0.5733, -0.9655, 11.9207, -73.9195, -34.8384
-0.5969, -0.5386, -0.8654, 19.4207, 6.2634, -56.4848
0.0227, -0.5227, -0.7659, 22.4695, 47.9707, -56.8506
0.3800, -0.5465, -0.6705, 15.2134, 36.7512, -49.5945
0.6952, -0.5470, -0.6381, -0.9451, 16.7512, -14.7165
0.6680, -0.5731, -0.7136, -12.8354, 17.0561, 32.2957
0.2621, -0.4908, -0.8016, -18.3841, 8.9463, 53.1494
0.0153, -0.5061, -0.8060, -22.1037, 18.3976, 68.3933
-0.2966, -0.4866, -0.8869, -19.2988, -29.1634, 44.2470
-0.7390, -0.4678, -1.0359, 0.6402, -78.1878, -1.3628
-0.8899, -0.5517, -0.9098, 16.7988, -40.4439, -43.3750
-0.3213, -0.5174, -0.8306, 22.8354, 19.0683, -53.6189
0.1523, -0.5153, -0.6877, 19.4817, 42.3000, -49.8384
0.4646, -0.5501, -0.6164, 5.3963, 28.7024, -35.8140
0.7408, -0.5430, -0.6718, -11.2500, 15.3488, 4.6738
0.5629, -0.5470, -0.7594, -17.5305, 2.1171, 39.3079
0.2137, -0.4940, -0.7918, -22.8963, 13.2146, 62.7835
-0.1298, -0.4658, -0.8142, -23.1402, -0.4439, 64.1250
-0.4995, -0.4574, -0.9998, -15.8841, -65.6878, 26.4421
-1.0182, -0.5208, -1.0432, 10.2134, -88.4317, -29.9604
-0.7076, -0.5578, -0.8835, 19.0549, -4.8951, -58.0091
-0.0839, -0.4976, -0.8077, 23.6890, 52.5439, -56.1189
0.3627, -0.4956, -0.7025, 16.0671, 47.2390, -46.5457
0.6266, -0.5252, -0.6312, 3.0183, 31.3854, -18.6189
0.7566, -0.5262, -0.7106, -12.1037, 19.0683, 25.4665
0.3656, -0.4848, -0.7670, -16.8598, 0.5927, 50.1616
-0.0105, -0.4661, -0.8095, -20.4573, 4.6171, 64.9787
-0.4035, -0.4820, -0.9413, -16.0061, -44.2854, 36.5640
-0.8966, -0.4969, -1.0083, 3.2012, -92.5780, -16.7896
-0.8918, -0.5574, -0.8948, 13.8720, -38.5537, -59.9604
-0.2009, -0.5272, -0.8018, 17.4695, 35.1659, -63.6189
0.2778, -0.4971, -0.6957, 14.9085, 51.2024, -56.9726
0.6493, -0.4978, -0.7161, 4.5427, 38.7024, -25.0213
0.8533, -0.5099, -0.7210, -9.2378, 24.2512, 29.3689
0.4532, -0.4995, -0.7585, -14.7866, 10.4098, 57.9665
0.0234, -0.4859, -0.7655, -22.1037, 14.9829, 73.8811
-0.2902, -0.4980, -0.8478, -23.1402, -23.1878, 57.5396
-0.7525, -0.4476, -1.0247, -6.9207, -84.1634, 7.5396
-1.0654, -0.5647, -0.9380, 12.0427, -59.4683, -49.3506
-0.4227, -0.5299, -0.8727, 17.5915, 27.5439, -57.7652
0.1580, -0.5036, -0.7000, 18.4451, 59.0073, -53.5579
0.5258, -0.5316, -0.6884, 11.0061, 37.1171, -38.1311
0.7770, -0.5405, -0.6588, -4.1768, 18.2146, 5.8323
0.5815, -0.5617, -0.7399, -12.7744, 6.2634, 40.7104
0.1926, -0.4855, -0.7609, -19.4817, 12.2390, 64.3079
-0.1342, -0.4208, -0.8249, -22.3476, 7.0561, 69.6128
-0.4987, -0.4988, -0.9534, -17.2256, -59.8341, 27.2348
-1.0246, -0.5132, -1.0311, 8.0793, -88.7366, -29.2287
-0.7469, -0.5590, -0.8950, 17.8354, -10.4439, -57.9482
-0.0861, -0.5245, -0.7893, 23.2622, 50.2268, -58.2530
0.3304, -0.4755, -0.7690, 19.8476, 46.9341, -51.9116
0.6294, -0.5458, -0.6437, 5.2744, 27.6659, -23.0091
0.8073, -0.5365, -0.7124, -9.8476, 22.7268, 29.3689
0.4032, -0.5056, -0.7620, -16.0671, 7.9098, 54.9787
0.0488, -0.4863, -0.8145, -22.2866, 20.1049, 74.9177
-0.2988, -0.4548, -0.8980, -20.7622, -27.8220, 50.7713
-0.7717, -0.4437, -1.0406, -0.7012, -88.2488, 1.3811
-1.0411, -0.5485, -0.9152, 17.9573, -50.7488, -48.1921
-0.3571, -0.5327, -0.8004, 21.7378, 30.0439, -55.1433
0.2020, -0.5167, -0.6494, 19.2988, 57.1780, -49.5945
0.5198, -0.5341, -0.6553, 8.0183, 38.3366, -35.0823
0.8039, -0.5505, -0.6221, -9.9085, 21.5073, 8.0884
0.6059, -0.5501, -0.7526, -16.9817, 4.3122, 47.0518
0.2132, -0.4984, -0.7947, -22.8354, 11.6902, 69.6738
-0.1710, -0.4356, -0.8535, -21.1890, -7.7610, 66.3811
-0.6457, -0.4196, -1.0425, -9.1768, -76.5415, 17.5396
-1.1281, -0.5896, -0.9888, 14.9085, -84.7122, -43.7409
-0.5885, -0.5604, -0.8523, 22.4695, 15.6537, -58.0091
0.0442, -0.5130, -0.7518, 22.7744, 64.4341, -56.4238
0.4151, -0.5122, -0.7256, 14.4817, 43.3976, -48.9848
0.6689, -0.5634, -0.6057, -0.7622, 26.3244, -18.3140
0.7798, -0.5285, -0.7254, -13.9939, 14.3732, 27.0518
0.3523, -0.4848, -0.7845, -17.5305, 6.0195, 52.9055
0.0533, -0.4715, -0.8092, -21.7378, 17.3000, 71.0152
-0.3171, -0.4648, -0.9100, -18.3232, -39.8951, 45.3445
-0.8760, -0.4284, -1.0599, 3.9939, -100.1390, -9.8384
-1.0308, -0.5853, -0.9164, 20.1524, -46.2976, -56.1189
-0.2592, -0.5392, -0.7909, 24.5427, 46.5683, -56.7287
0.3010, -0.4902, -0.6849, 20.2134, 61.6902, -48.8628
0.6099, -0.5459, -0.6008, 4.0549, 32.6049, -28.8018
0.8249, -0.5592, -0.6489, -14.5427, 10.2268, 13.7591
0.5030, -0.5327, -0.7554, -18.7500, -0.6878, 45.7104
0.1553, -0.5046, -0.7841, -24.3598, 20.0439, 71.5640
-0.1499, -0.4675, -0.7704, -25.3963, -6.2976, 64.5518
-0.5741, -0.4528, -1.0043, -13.3841, -80.9927, 19.7957
-1.1489, -0.5416, -0.9875, 14.1768, -95.6268, -41.2409
-0.5992, -0.5714, -0.8627, 22.8354, 17.4220, -58.6189
0.0532, -0.5200, -0.7505, 25.7012, 67.7268, -58.3140
0.4675, -0.5596, -0.6760, 15.0305, 43.4585, -51.9116
0.7276, -0.5705, -0.5861, -4.1159, 16.9341, -18.8628
0.7096, -0.5581, -0.7387, -18.8110, 4.4951, 29.6738
0.2483, -0.4547, -0.8282, -22.5915, 6.9341, 56.6250
0.0043, -0.4489, -0.8303, -26.5549, 20.5927, 71.3811
-0.2830, -0.4683, -0.9287, -23.8110, -31.1756, 46.0762
-0.7796, -0.4565, -1.0331, -3.9939, -80.2000, -0.5091
-0.9528, -0.5376, -0.9319, 13.0793, -39.3463, -45.6921
-0.3770, -0.5067, -0.8785, 22.4695, 22.7878, -57.0945
0.1155, -0.5198, -0.7041, 23.3841, 40.3488, -56.3628
0.4516, -0.5451, -0.6364, 12.5915, 31.3244, -44.5945
0.7430, -0.5418, -0.5887, -5.7012, 25.2268, -6.6677
0.6974, -0.5606, -0.7410, -17.2256, 13.0317, 38.3933
0.2803, -0.4920, -0.7843, -22.4085, 11.5073, 64.1860
-0.0885, -0.4028, -0.8610, -22.7134, -3.3098, 68.7591
-0.5695, -0.4512, -0.9890, -13.3232, -71.8463, 25.4055
-1.0999, -0.4936, -1.0077, 13.6890, -87.5171, -32.3384
-0.6810, -0.5371, -0.8666, 20.3963, 5.4707, -57.3994
0.0571, -0.4814, -0.7576, 22.3476, 63.8244, -52.4604
0.5500, -0.5044, -0.6792, 13.6280, 55.4707, -33.8628
0.8463, -0.5555, -0.5809, -5.7012, 32.6659, 8.2104
0.7222, -0.5592, -0.7136, -18.5061, 2.6659, 45.6494
0.2357, -0.4922, -0.7714, -25.1524, 1.1415, 70.8933
-0.2345, -0.4319, -0.8804, -23.6890, -18.4927, 64.7348
-0.7260, -0.4707, -1.0428, -8.9329, -83.3098, 12.3567
-1.1638, -0.6093, -0.9915, 16.1890, -76.1146, -51.1799
-0.5169, -0.5457, -0.8565, 23.5671, 25.3488, -62.3994
0.1437, -0.5081, -0.7140, 24.6646, 71.8732, -58.0091
0.5463, -0.5330, -0.6417, 13.5061, 47.6049, -44.0457
0.7992, -0.5618, -0.6006, -4.9695, 23.2146, -5.6311
0.6523, -0.5562, -0.7070, -17.7134, 3.5195, 37.0518
0.2262, -0.4766, -0.7827, -22.8963, 9.0683, 61.6250
-0.0955, -0.4041, -0.8467, -24.6037, 13.8854, 72.6616
-0.4097, -0.4688, -0.9256, -20.6402, -47.9439, 39.1250
-0.9362, -0.4750, -1.0858, 4.9085, -93.8585, -18.5579
-0.8013, -0.5609, -0.8965, 17.4695, -23.1878, -55.1433
-0.1542, -0.4912, -0.8454, 22.5915, 36.7512, -55.2652
0.2729, -0.4769, -0.7357, 15.7012, 41.1415, -50.8750
0.5486, -0.4889, -0.7289, 3.2622, 20.7756, -33.1311
0.7049, -0.5178, -0.6946, -11.1890, 11.9951, 9.1860
0.4752, -0.5189, -0.7738, -15.5183, 8.3366, 47.3567
0.1344, -0.5078, -0.7570, -19.9695, 22.1171, 68.8811
-0.1321, -0.4984, -0.7915, -20.5183, -2.8220, 63.2104
-0.5445, -0.5537, -0.9521, -11.3720, -67.5780, 18.3933
-1.0171, -0.5487, -0.9629, 10.0915, -66.4195, -32.2774
-0.6224, -0.5355, -0.8770, 17.3476, -6.2366, -60.8750
-0.0570, -0.5216, -0.8011, 24.3598, 33.8854, -62.9482
0.2989, -0.4985, -0.7002, 17.8354, 32.9098, -59.5945
0.6028, -0.4906, -0.6990, 3.0183, 27.3000, -26.7896
0.7596, -0.4918, -0.7052, -11.6159, 25.0439, 20.4665
0.4527, -0.4952, -0.7755, -16.6159, 14.3122, 53.8811
0.1214, -0.5056, -0.7255, -24.9085, 31.0195, 76.7470
-0.2194, -0.4606, -0.8151, -26.9817, -21.2366, 57.6616
-0.7609, -0.4832, -1.0657, -10.6402, -96.2366, 6.0152
-1.1036, -0.5741, -0.9779, 12.3476, -75.6878, -53.8018
-0.4766, -0.5022, -0.9164, 23.3232, 16.5683, -64.9604
0.1467, -0.4902, -0.7214, 24.4207, 65.1049, -56.8506
0.5750, -0.5040, -0.6537, 13.9939, 53.5195, -37.7652
0.8927, -0.5296, -0.5725, -6.7988, 30.3488, 6.2591
0.6418, -0.5363, -0.7404, -17.5915, 7.5439, 42.4787
0.1999, -0.4892, -0.7885, -23.6280, 11.1415, 66.5640
-0.0965, -0.3808, -0.8685, -24.3598, 6.4463, 71.8079
-0.4905, -0.4839, -0.9841, -16.6768, -57.3951, 28.8201
-0.9763, -0.4807, -1.0548, 8.0183, -86.0537, -24.8384
-0.7663, -0.5144, -0.8954, 19.9085, -21.5415, -57.4604
-0.1273, -0.4855, -0.8250, 26.6159, 25.2268, -61.5457
0.2313, -0.4722, -0.8087, 23.5061, 31.9341, -56.3628
0.5090, -0.4921, -0.7562, 11.4329, 25.8366, -31.9726
0.7468, -0.5215, -0.6595, -4.4817, 22.9098, 9.2470
0.5559, -0.5721, -0.7656, -12.4085, 13.2146, 47.1128
0.1893, -0.5023, -0.7816, -17.4695, 22.4829, 68.6372
-0.0681, -0.4529, -0.8530, -21.1280, -3.9195, 63.9421
-0.5174, -0.5170, -0.9526, -11.1890, -63.7366, 24.1250
-0.9804, -0.5239, -0.9781, 11.6159, -85.9317, -29.7165
-0.7012, -0.5575, -0.8583, 19.3598, -11.9683, -58.1311
-0.0505, -0.5085, -0.7118, 21.7378, 47.6049, -57.0945
0.3935, -0.5114, -0.6288, 10.3963, 46.0805, -48.6189
0.7458, -0.5348, -0.6353, -3.9329, 28.5805, -12.9482
0.7535, -0.5336, -0.7577, -13.3232, 14.7390, 35.8323
0.3155, -0.5170, -0.7883, -17.4695, 12.1171, 62.9665
-0.0068, -0.5138, -0.8077, -23.2622, 21.3244, 77.2957
-0.3603, -0.4635, -0.9501, -19.6037, -34.1024, 47.1738
-0.8419, -0.4935, -1.0334, 0.7622, -93.1878, -8.5579
-0.9608, -0.5754, -0.8936, 16.7378, -48.3707, -56.1189
-0.2779, -0.5274, -0.8266, 21.1280, 31.8122, -61.3018
0.2245, -0.4741, -0.7317, 16.9207, 58.9463, -52.1555
0.6034, -0.4987, -0.6769, 7.1646, 41.0805, -30.9360
0.8318, -0.5212, -0.6667, -8.6280, 20.7756, 16.3201
0.5080, -0.5231, -0.7463, -14.5427, 5.5927, 50.1006
0.1528, -0.4989, -0.7790, -20.0915, 22.1171, 72.7226
-0.2097, -0.4573, -0.8034, -22.5915, -10.0171, 60.2226
-0.6676, -0.4923, -0.9902, -8.4451, -80.7488, 13.7591
-1.0781, -0.5756, -0.9309, 13.5061, -74.1024, -45.9360
-0.5316, -0.5547, -0.8626, 19.6037, 13.0927, -61.9726
0.1087, -0.5040, -0.6961, 19.3598, 58.4585, -57.2165
0.5159, -0.5074, -0.6926, 9.5427, 39.5561, -47.1555
0.7891, -0.5524, -0.6519, -5.4573, 18.1537, -7.4604
0.6895, -0.5384, -0.7602, -14.1159, 11.4463, 39.9177
0.2770, -0.4809, -0.7839, -18.8110, 14.8000, 66.3201
-0.0134, -0.4484, -0.8314, -22.8963, 15.6537, 76.6250
-0.4154, -0.4774, -0.9320, -17.4695, -47.7610, 41.1372
-0.9801, -0.4738, -1.0463, 6.0671, -92.0902, -17.1555
-0.8199, -0.5811, -0.8727, 16.5549, -19.4683, -55.3262
-0.1564, -0.5161, -0.7674, 19.7866, 45.5927, -56.3628
0.2919, -0.4777, -0.7157, 13.3232, 44.2512, -52.8262
0.5250, -0.4991, -0.6965, 2.6524, 16.4463, -37.2165
0.7286, -0.5201, -0.6978, -9.6646, 9.8000, 5.0396
0.5618, -0.5364, -0.7675, -13.8720, 15.8366, 50.3445
0.2369, -0.5102, -0.7808, -18.8110, 28.2756, 76.5640
-0.1168, -0.4499, -0.8220, -20.2134, -6.0537, 67.6006
-0.6253, -0.4647, -0.9943, -7.9573, -75.6878, 22.1128
-1.1554, -0.5664, -0.9470, 14.4817, -74.7732, -40.2652
-0.6123, -0.5731, -0.8469, 19.7866, 13.1537, -64.1067
0.0694, -0.5163, -0.6974, 20.5183, 59.1293, -63.1311
0.4846, -0.5035, -0.6722, 11.6159, 42.6659, -56.7896
0.8902, -0.5119, -0.5891, -6.8598, 24.3122, -8.9238
0.8021, -0.5486, -0.7605, -13.5061, 15.7756, 43.2104
0.3232, -0.4776, -0.8082, -17.1037, 13.7634, 70.4055
-0.0391, -0.4282, -0.8405, -19.7866, 14.9829, 83.5762
-0.4602, -0.4750, -0.9573, -13.8110, -56.9683, 41.8079
-1.0684, -0.5124, -1.0269, 12.4695, -96.8463, -20.6921
-0.8443, -0.5766, -0.8430, 19.7256, -15.5049, -56.4848
-0.1087, -0.5183, -0.7473, 19.8476, 44.4341, -59.4726
0.3281, -0.4828, -0.7341, 12.1646, 31.0195, -57.7043
0.5885, -0.5164, -0.7081, -2.3476, 10.8976, -30.9360
0.7891, -0.5050, -0.7678, -15.0915, 11.1415, 15.7713
0.4925, -0.5078, -0.7975, -17.0427, 12.6659, 54.5518
0.1708, -0.4958, -0.7954, -22.4695, 20.5927, 76.1982
-0.2657, -0.4678, -0.8659, -20.1524, -33.4317, 55.9543
-0.8388, -0.4727, -1.0346, -1.9817, -101.6024, 0.3445
-1.1298, -0.6118, -0.9297, 14.9695, -55.0780, -51.6067
-0.3832, -0.5427, -0.8300, 19.2378, 34.3122, -59.1067
0.2242, -0.4929, -0.6960, 16.9207, 51.9341, -56.7287
0.5428, -0.4885, -0.7299, 8.3841, 22.6049, -45.4482
0.6924, -0.5260, -0.6846, -4.1768, 5.3488, -8.4970
0.6361, -0.5294, -0.7804, -12.5305, 14.5561, 40.5884
0.2920, -0.4982, -0.7632, -18.3232, 21.6293, 66.4421
-0.0913, -0.3934, -0.8743, -17.9573, -5.8707, 68.0274
-0.6665, -0.4862, -0.9828, -7.7744, -86.0537, 16.9299
-1.1608, -0.5620, -0.9806, 14.6646, -91.7854, -44.0457
-0.6222, -0.5711, -0.8566, 20.5183, 23.7024, -61.8506
0.1352, -0.4852, -0.7114, 18.0793, 86.1415, -51.5457
0.6758, -0.5225, -0.5903, 3.5061, 66.5073, -29.8994
0.9356, -0.5344, -0.6464, -12.7744, 21.0805, 13.1494
0.5279, -0.4907, -0.7910, -15.0305, -6.3585, 47.4177
0.1235, -0.4958, -0.7860, -19.4207, 15.9585, 71.5031
-0.3131, -0.4050, -0.8789, -15.6402, -13.5537, 59.3689
-0.8638, -0.4837, -1.0280, 3.6890, -95.4439, -4.8994
-1.0643, -0.6421, -0.8942, 21.8598, -64.2854, -59.8384
-0.3397, -0.5531, -0.7395, 24.1159, 47.6659, -58.0701
0.3624, -0.5158, -0.5740, 13.9939, 85.0439, -45.6311
0.8601, -0.5259, -0.5827, -7.0427, 45.7146, -9.4116
0.8307, -0.5551, -0.7303, -20.0915, -0.6878, 26.9909
0.3520, -0.4554, -0.8018, -22.5305, -15.2610, 53.4543
-0.0694, -0.4209, -0.8768, -24.1159, -5.3829, 66.8079
-0.4981, -0.5237, -0.9666, -14.9695, -50.2610, 37.7835
-0.9530, -0.4652, -1.0850, 10.5183, -88.0049, -21.8506
-0.8029, -0.5971, -0.8687, 21.8598, -25.0780, -62.5823
-0.1314, -0.5144, -0.7742, 23.4451, 49.9220, -58.1921
0.3508, -0.4967, -0.6983, 14.8476, 56.0195, -52.2774
0.6495, -0.5125, -0.6902, 0.2134, 25.2878, -23.4970
0.7642, -0.4877, -0.7490, -15.6402, 9.3122, 23.6372
0.3238, -0.4118, -0.8005, -15.8841, -12.2732, 45.8323
-0.1594, -0.4173, -0.8928, -14.1768, -27.5780, 47.4177
-0.4656, -0.5151, -0.9013, -5.0305, -42.6390, 29.1250
-0.6615, -0.5552, -0.8715, 5.6402, -28.3098, -7.1555
-0.2579, -0.5475, -0.7668, 4.7866, 26.9951, -9.1677
0.1629, -0.5537, -0.7153, 0.8232, 39.1902, -2.8872
0.2916, -0.5451, -0.7400, -5.3963, 5.1049, 1.5030
0.1089, -0.5448, -0.8571, -6.1890, -28.6756, 1.5030
-0.1541, -0.5377, -0.9244, -3.0793, -28.6146, -2.2165
-0.1743, -0.5426, -0.8829, 2.3476, -1.9073, -3.4970
-0.0385, -0.5358, -0.8261, 5.5183, 13.9463, -2.2774
0.0301, -0.5277, -0.7903, 7.1646, 5.9585, -2.2774
-0.0173, -0.5197, -0.7602, 4.3598, -1.2976, -2.5823
-0.0452, -0.5344, -0.7858, 1.0061, -2.9439, -2.1555
-0.0582, -0.5252, -0.8140, -1.2500, -5.1390, -6.1189
-0.0321, -0.5104, -0.8173, -0.9451, -8.9805, -7.2165
0.0068, -0.4918, -0.8030, -0.3963, -5.5049, -3.8018
0.0919, -0.4876, -0.7986, 0.3963, 5.7146, 6.6860
0.1188, -0.4982, -0.8022, -2.5305, 12.1780, 21.3811
0.0289, -0.5363, -0.8258, -5.0305, 6.8122, 28.3323
-0.1049, -0.5506, -0.8617, -7.3476, -9.8341, 21.6860
-0.3445, -0.5631, -0.9385, -0.8841, -31.6024, 0.8933
-0.5025, -0.5605, -0.9039, 11.9207, -37.3951, -28.0701
-0.3414, -0.5746, -0.8712, 21.1890, -16.9073, -46.9116
-0.0437, -0.5449, -0.7485, 22.1037, 14.6171, -46.8506
0.3066, -0.5235, -0.5861, 9.9695, 32.7878, -28.1311
0.6171, -0.4918, -0.6125, -7.8354, 29.0073, 10.1616
0.4778, -0.4825, -0.7320, -17.2866, 1.8122, 36.3811
0.1864, -0.4541, -0.7614, -24.9695, -0.2000, 60.6494
-0.1917, -0.4553, -0.8506, -23.6890, -8.9195, 64.6128
-0.6294, -0.4906, -1.0061, -13.6890, -65.8707, 22.7226
-1.0505, -0.6300, -1.0051, 9.8476, -82.8220, -38.8628
-0.6157, -0.6037, -0.9177, 19.4207, -2.0293, -60.0823
-0.0204, -0.5207, -0.7836, 22.1646, 57.9098, -56.6067
0.4015, -0.5100, -0.7654, 15.1524, 50.2268, -43.8628
0.6254, -0.4980, -0.6384, -0.3354, 19.8000, -10.5701
0.5415, -0.4887, -0.7374, -12.1646, 1.9341, 25.8323
0.0542, -0.4144, -0.7969, -13.8720, -10.3829, 39.5518
-0.2293, -0.4564, -0.8251, -16.3720, -13.6756, 38.9421
-0.3890, -0.4674, -0.8514, -12.7134, -25.6878, 25.5884
-0.4563, -0.5077, -0.8546, -7.2866, -11.8463, 5.5884
-0.1807, -0.5022, -0.8065, -9.2378, 24.3122, 2.9665
0.0914, -0.4641, -0.7923, -11.0671, 27.1780, 11.8079
0.0959, -0.5260, -0.8206, -12.0427, 3.8244, 16.5640
-0.0354, -0.5116, -0.8699, -10.5793, -8.9805, 18.2713
-0.1300, -0.5055, -0.8763, -7.6524, -6.5415, 17.3567
-0.1484, -0.5026, -0.8663, -5.8232, -0.2610, 17.1128
-0.1901, -0.5419, -0.8740, -0.8841, -2.0293, 12.2957
-0.1603, -0.5263, -0.8589, 1.6159, -1.1756, 5.2835
-0.0930, -0.4992, -0.8337, 3.3841, 5.5317, 5.1006
