ax,ay,az,gx,gy,gz
-0.2179, -0.3427, -0.9031, 21.1890, 18.2146, -16.2409
-0.1893, -0.3291, -0.9015, 23.5061, 19.6171, -17.0335
-0.1634, -0.3333, -0.8732, 23.6890, 18.7024, -18.2530
-0.1441, -0.3366, -0.8770, 22.2866, 20.3488, -18.4360
-0.1164, -0.3501, -0.8864, 19.9085, 19.6171, -18.4360
-0.0935, -0.3530, -0.9033, 16.6159, 16.5683, -18.0701
-0.0643, -0.3769, -0.8768, 13.5061, 16.5683, -16.4848
-0.0602, -0.3803, -0.8765, 10.0915, 16.9951, -13.9848
-0.0350, -0.3999, -0.8843, 7.1037, 19.1902, -11.0579
-0.0037, -0.3996, -0.8784, 4.5427, 17.9098, -9.4726
-0.0059, -0.4149, -0.8794, 1.0671, 11.6293, -8.5579
-0.0314, -0.4086, -0.8809, -0.5793, 11.7512, -8.6189
-0.0297, -0.4227, -0.9000, -0.6402, 13.3366, -8.8628
-0.0177, -0.4133, -0.9058, 0.5793, 8.7024, -10.0823
-0.0082, -0.4246, -0.8920, 1.7988, 3.8854, -11.1799
-0.0372, -0.4325, -0.8522, 0.4573, -3.0659, -13.9238
-0.0504, -0.4273, -0.8773, -0.2744, -5.8707, -18.1921
-0.0359, -0.4098, -0.9044, -0.2134, -9.2244, -19.1067
-0.0562, -0.4020, -0.9017, 1.1280, -18.0049, -23.3750
-0.0906, -0.4026, -0.8990, 1.9207, -19.4683, -27.3994
-0.1049, -0.3812, -0.9280, 2.7744, -9.4073, -28.0701
-0.0778, -0.3687, -0.9359, 4.5427, -2.8829, -28.5579
-0.0411, -0.3679, -0.9253, 6.3110, -2.5780, -28.9848
-0.0574, -0.3783, -0.9285, 7.2866, 0.3488, -29.1677
-0.0494, -0.3883, -0.9448, 9.4207, 4.8610, -30.5701
-0.0427, -0.3997, -0.9435, 10.2744, 7.7268, -29.2287
-0.0186, -0.3988, -0.9561, 12.8354, 14.0073, -28.9848
0.0145, -0.4140, -0.9210, 14.5427, 20.9585, -27.9482
0.0293, -0.4252, -0.9331, 16.3720, 19.4341, -28.1921
0.0602, -0.4351, -0.9249, 18.6890, 20.7756, -26.7287
0.0765, -0.4587, -0.8663, 19.9085, 21.9341, -27.6433
0.0755, -0.4945, -0.8271, 20.9451, 24.4951, -27.3994
0.0906, -0.5255, -0.7753, 21.3720, 27.1171, -26.7287
0.1282, -0.5241, -0.7269, 20.7012, 21.2634, -29.7165
0.1427, -0.5557, -0.6771, 19.4207, 6.6902, -31.1799
0.1078, -0.5031, -0.6878, 16.1280, -2.3341, -37.2165
0.0401, -0.4230, -0.7458, 12.9573, -0.1390, -47.2165
0.1896, -0.3220, -0.8019, 7.7134, 32.9707, -33.2530
0.3738, -0.2625, -0.8791, 7.8354, 44.9220, -11.6677
0.4583, -0.2427, -0.9588, 13.3232, 19.1902, 10.2226
0.3428, -0.3573, -0.8687, 18.5061, -8.1878, 21.8689
0.1539, -0.6029, -0.7145, 18.8720, -13.3707, 26.9299
0.0259, -0.8690, -0.6469, 19.2378, 2.2390, 20.8323
0.0682, -0.9597, -0.5782, 12.7744, 7.7268, 3.6982
0.0385, -0.8925, -0.5734, -10.3963, -3.1878, -29.2287
0.1286, -0.5555, -0.7332, -28.7500, -8.3707, -42.0335
0.2121, -0.1952, -1.0389, -26.0671, -5.9927, -36.0579
0.2563, -0.0170, -1.1513, -7.0427, 13.8244, -13.3750
0.2694, -0.1682, -1.0433, 11.6768, 28.3976, 10.5884
0.1218, -0.3409, -0.8453, 15.2744, 24.3732, 21.6860
0.0699, -0.4159, -0.8608, 13.7500, 31.9341, 22.1738
0.1450, -0.5100, -0.7509, 4.3598, 51.6293, 22.0518
0.2131, -0.7561, -0.6783, 4.7256, 47.0561, 24.4299
0.1493, -0.9075, -0.5654, 2.3476, 19.1293, -0.3262
0.1758, -0.8176, -0.5741, -11.0061, 21.5073, -27.0335
0.3304, -0.6917, -0.6681, -23.1402, 17.4220, -31.3018
0.3924, -0.3806, -0.7944, -24.8476, -11.9073, -34.2896
0.3038, -0.1399, -0.9194, -16.3720, -18.7366, -24.0457
0.2311, -0.0799, -0.9930, -2.0427, 1.8122, -3.4360
0.2184, -0.1503, -0.8937, 10.8841, 19.4341, 16.4421
0.2994, -0.2557, -0.8101, 14.9695, 18.6415, 27.4177
0.2117, -0.4012, -0.8119, 13.6890, 9.4341, 29.1860
0.2360, -0.6080, -0.7554, 3.3841, 24.4951, 34.5518
0.2998, -0.8997, -0.6832, 4.6037, 12.7268, 29.3689
0.1775, -1.0005, -0.5839, 4.6037, -17.7610, -5.5091
0.1264, -0.8076, -0.6118, -5.6402, -2.8220, -30.5091
0.2765, -0.5879, -0.7577, -15.0915, 5.2268, -40.9969
0.3305, -0.1995, -0.9421, -16.4329, -3.3098, -37.7652
0.3390, 0.0086, -0.9935, -9.1768, 1.8732, -20.6921
0.3880, -0.0039, -1.0663, 4.3598, 11.9951, 6.9909
0.3243, -0.1972, -0.8122, 11.1890, 14.4341, 33.5762
0.2544, -0.2860, -0.8852, 8.8720, 8.0317, 40.8323
0.2353, -0.5845, -0.6868, -4.6037, 17.1780, 41.5640
0.2785, -0.8649, -0.6901, -10.9451, 7.1780, 38.7591
0.1611, -0.9859, -0.5574, -8.8720, -13.6146, 6.8689
0.1533, -0.9113, -0.5226, -13.5061, -18.1878, -26.3628
0.2977, -0.7301, -0.6260, -20.6402, -5.0171, -35.5091
0.2895, -0.3646, -0.7758, -22.1037, -18.2488, -44.5335
0.3063, -0.1278, -0.8735, -13.9329, -25.0171, -33.8628
0.3404, 0.0237, -0.9517, -0.8841, -10.5049, -7.8872
0.3457, 0.0777, -0.9877, 14.7866, 0.7756, 24.4909
0.3221, -0.1854, -0.8607, 19.3598, -7.7000, 46.4421
0.1686, -0.5061, -0.7824, 10.9451, -32.4561, 44.1250
0.0894, -0.9316, -0.7187, 7.4085, -32.0293, 36.0152
0.0348, -1.0824, -0.6494, 8.3232, -26.2976, 5.9543
0.0506, -0.9091, -0.6108, -0.8841, -13.7976, -27.9482
0.2527, -0.7553, -0.5905, -4.2988, -14.4073, -42.8262
0.2718, -0.5686, -0.5567, -3.1402, -42.6390, -54.9604
0.2099, -0.2525, -0.7483, -4.6037, -73.3098, -47.8262
0.2041, 0.1039, -0.9244, 4.6646, -55.9927, -21.4238
0.2564, 0.1351, -1.0550, 17.9573, -26.3585, 14.6738
0.2496, 0.0171, -0.9993, 23.2622, -12.8829, 47.3567
0.2083, -0.2315, -0.9497, 17.2866, -30.3829, 64.7957
0.0453, -0.6383, -0.8349, 3.9939, -36.1146, 67.3567
-0.1338, -1.1926, -0.8701, 3.2012, -52.0293, 48.4543
-0.3314, -1.2669, -0.9117, 7.2256, -50.7488, 3.5762
-0.3759, -0.9271, -0.9025, 2.6524, -6.9073, -46.3018
-0.0515, -0.7549, -0.7897, -2.2256, 44.9829, -59.3506
0.1817, -0.3648, -0.7522, -4.6037, 46.1415, -62.6433
0.4151, -0.0418, -0.7807, -0.3354, 23.3976, -29.4726
0.3622, 0.0364, -0.8242, 1.9207, -8.6146, 0.4665
0.1031, 0.0071, -0.8262, 3.0793, -22.8829, 24.4909
-0.0027, -0.2246, -0.8821, -2.2866, -6.1756, 37.6616
-0.0363, -0.3973, -1.0478, -7.7134, 8.9463, 48.8811
-0.0016, -0.6814, -1.0348, -15.5183, 34.9220, 43.2104
-0.0811, -1.0726, -1.0828, -6.9817, 40.4098, 27.7226
-0.1784, -1.1320, -1.0074, 8.3232, 46.8732, -9.0457
-0.0955, -0.8261, -0.8457, 7.4695, 57.1780, -52.1555
0.0378, -0.7720, -0.6880, -5.8841, 68.2146, -71.1189
0.3166, -0.4310, -0.8419, -10.3354, 65.9585, -68.0091
0.4115, -0.0394, -0.7313, -16.0671, 61.3244, -44.6555
0.4264, 0.1160, -0.7826, -19.1159, 66.4463, -16.3018
0.4559, -0.0536, -0.7840, -13.7500, 55.4098, 16.7470
0.3295, -0.1513, -0.7678, -10.1524, 26.9951, 37.9055
0.1874, -0.3674, -0.7085, -16.5549, 22.1171, 37.7835
0.2112, -0.7611, -0.7463, -9.3598, 26.9951, 39.3079
0.1932, -1.0369, -0.6503, 5.6402, 23.8854, 14.7348
0.2070, -0.9353, -0.5554, 4.9085, 6.2634, -35.4482
0.2823, -0.7121, -0.6564, -7.8963, 20.5927, -47.3384
0.3772, -0.2870, -0.8256, -16.0671, 23.7024, -53.1921
0.5083, -0.0133, -0.8695, -16.9207, 16.1415, -28.8628
0.4559, 0.0554, -0.9854, -7.4695, 6.4463, -1.4238
0.3390, -0.0845, -0.8953, 7.1037, 16.2024, 25.1006
0.2451, -0.2360, -0.8977, 11.0671, 18.8244, 31.6250
0.2737, -0.4682, -0.7698, 6.0671, 42.1171, 29.7348
0.3523, -0.8004, -0.6862, 7.4695, 41.8122, 24.6128
0.3201, -0.9289, -0.5253, 13.2622, 37.7268, -2.7652
0.3815, -0.8345, -0.4444, 7.6524, 25.8366, -35.1433
0.4997, -0.6741, -0.5637, -5.7622, 21.3244, -42.9482
0.5650, -0.2929, -0.7280, -14.0549, 1.9341, -41.9116
0.5496, -0.0531, -0.8983, -14.1768, -15.1390, -26.4238
0.4419, -0.0023, -0.9886, -1.9207, -12.4561, -1.9726
0.3785, -0.0593, -0.9149, 11.3110, 1.9951, 20.4055
0.3491, -0.2377, -0.7769, 13.7500, 10.7146, 28.6982
0.3850, -0.4753, -0.6333, 8.5061, 34.3122, 28.5152
0.4537, -0.7809, -0.5783, 2.7134, 29.7390, 21.8689
0.4501, -0.9258, -0.4482, 9.0549, 9.8000, 4.0640
0.4244, -0.8682, -0.4279, 2.7134, -9.5293, -28.1311
0.4222, -0.6575, -0.5786, -12.4695, -3.6756, -40.8750
0.5221, -0.2752, -0.8552, -17.0427, 3.7024, -37.0335
0.5448, -0.0661, -0.8762, -13.8110, -10.0780, -21.3628
0.4881, 0.0178, -0.9564, -2.4695, -13.7366, -0.5091
0.3874, -0.0775, -0.9072, 8.2012, -1.9683, 20.5274
0.3633, -0.2440, -0.7056, 9.6646, 14.3732, 33.2713
0.4366, -0.5300, -0.6615, 4.9085, 23.6415, 30.4055
0.4644, -0.8421, -0.5747, 5.9451, 19.0073, 24.6738
0.4626, -0.9315, -0.4943, 10.5793, 0.7756, -2.7652
0.4513, -0.8136, -0.5281, 1.3110, -6.4195, -32.8872
0.4394, -0.5402, -0.7576, -6.7378, 2.8488, -44.2287
0.5203, -0.1807, -0.9275, -6.9207, 2.7878, -35.3872
0.5114, 0.0217, -0.9023, -4.0549, -5.2000, -16.4848
0.4632, 0.0232, -0.8806, 2.7134, 0.5317, 8.3323
0.4630, -0.1490, -0.7581, 5.3354, 1.7512, 28.3323
0.4499, -0.2558, -0.7856, 2.6524, -7.4561, 35.7713
0.3724, -0.6112, -0.6382, -2.4085, 2.7268, 31.7470
0.4408, -0.8728, -0.6357, -0.0305, 8.7024, 24.1860
0.4372, -0.9533, -0.5138, 3.8720, -4.1024, -9.1067
0.4668, -0.7375, -0.6240, -2.3476, -10.8707, -39.2896
0.4494, -0.4682, -0.7198, -7.8963, -4.4073, -47.7043
0.4961, -0.1135, -0.8748, -9.6037, -2.5171, -37.6433
0.5360, 0.0715, -0.8854, -5.0305, -0.3829, -13.0091
0.5500, 0.0551, -0.8846, 3.1402, 1.9341, 13.3933
0.4550, -0.1626, -0.7324, 4.9695, 1.3854, 36.8079
0.5486, -0.2807, -0.7454, -1.0061, -2.7610, 52.1128
0.3829, -0.6362, -0.6351, -3.7500, -26.6634, 42.6616
0.3010, -0.9062, -0.6682, 2.0427, -16.7854, 29.0030
0.2783, -0.9305, -0.5779, 4.4817, -7.3951, -10.2652
0.4180, -0.7194, -0.6618, 1.9207, 2.6049, -33.7409
0.4689, -0.4508, -0.7144, -3.8720, 2.0561, -44.5945
0.5077, -0.1206, -0.8218, -10.7012, -7.3341, -31.3628
0.5051, 0.0177, -0.8386, -10.2134, -14.5293, -9.2287
0.5129, 0.0007, -0.9708, 1.6159, -10.4439, 17.2348
0.4350, -0.2114, -0.8046, 7.9573, -4.9561, 34.9787
0.4235, -0.3499, -0.7885, 5.2744, -1.9683, 42.0518
0.3713, -0.6155, -0.7136, -0.3354, -0.6878, 35.1006
0.3276, -0.8970, -0.6672, 1.4329, 2.9707, 17.1738
0.3459, -0.9215, -0.6075, 3.0183, 1.6902, -15.3872
0.4067, -0.7207, -0.6539, -0.7622, 3.6415, -37.7652
0.4722, -0.5217, -0.6493, -8.0793, 1.4463, -46.8506
0.4949, -0.1657, -0.8419, -7.0427, -6.4805, -36.3628
0.4708, 0.0489, -0.8400, -1.6159, -2.1512, -12.8872
0.5027, 0.0418, -0.8552, 7.4085, 6.9341, 15.8933
0.4629, -0.1301, -0.7537, 11.4329, 5.4098, 36.7470
0.4770, -0.2720, -0.7227, 11.4329, -6.6634, 54.2470
0.3282, -0.5278, -0.6476, -2.6524, -11.6024, 42.1738
0.3268, -0.8667, -0.6094, -0.7012, -10.1390, 38.4543
0.3149, -1.0296, -0.5391, 3.8720, -25.6268, 5.9543
0.3782, -0.7923, -0.6047, -1.0671, -28.5537, -23.4360
0.3446, -0.4592, -0.6883, -13.8110, -31.6024, -32.4604
0.4679, -0.0526, -0.8408, -16.5549, -12.6390, -9.4116
0.5552, 0.1091, -0.9249, -8.0793, -2.7610, 19.8567
0.5404, -0.0621, -0.9020, 5.3963, -6.5415, 54.0031
0.3262, -0.3132, -0.7779, 6.3720, -24.0415, 63.8201
0.2269, -0.6038, -0.6558, -1.1890, -26.1146, 51.9299
0.1653, -0.9509, -0.7376, -6.3720, -26.2976, 32.6616
0.1083, -1.0800, -0.6204, 0.3963, -22.4561, 1.2591
0.3251, -0.8153, -0.6006, -2.5305, -16.6634, -22.9482
0.4065, -0.7213, -0.6725, -4.4817, -53.0659, -40.4482
0.2206, -0.5730, -0.7454, -17.7744, -82.8829, -61.3628
0.2372, -0.0328, -0.9319, -15.4573, -67.3951, -37.4604
0.3946, 0.2343, -1.0385, -14.8476, -56.7244, -3.9848
0.3887, 0.1188, -0.9677, -11.5549, -46.9073, 26.5030
0.2369, -0.1469, -0.9236, -8.3841, -40.6878, 45.2835
0.1200, -0.4174, -0.9356, -8.8720, -33.5537, 49.3689
0.0456, -0.8120, -0.8804, -5.1524, -19.4683, 44.3689
-0.0786, -1.1049, -0.8339, 3.8720, -25.0171, 17.4787
-0.1248, -0.9102, -0.7986, 4.4207, -18.0049, -26.7287
0.0673, -0.7392, -0.7818, -1.1280, -7.8220, -43.8018
0.0701, -0.5666, -0.7519, -8.5671, -24.6512, -67.5213
0.1623, -0.1864, -0.8797, -11.9817, -37.2122, -63.4969
0.1980, 0.0989, -0.8373, -6.4329, -24.6512, -31.3018
0.2641, 0.1763, -0.9390, 1.0671, -4.6512, -0.1433
0.1977, -0.0121, -0.8932, 3.9329, -2.0902, 25.1006
0.2137, -0.2201, -0.8443, 1.0061, 6.0195, 52.6616
0.1488, -0.4727, -0.9727, -10.0305, -7.3341, 55.7104
-0.0107, -0.9375, -0.9581, -5.5183, -18.7976, 39.7348
-0.2071, -1.0953, -0.9303, 3.8720, -25.2610, -0.8140
-0.1339, -0.7537, -0.8748, 3.6280, 5.5927, -27.6433
-0.0466, -0.6031, -0.8128, 1.6768, 7.8488, -54.2287
0.1075, -0.1779, -0.8805, -0.4573, -5.7488, -51.1799
0.2150, 0.1781, -0.8668, -0.6402, 12.9707, -26.7287
0.4106, 0.1036, -0.9171, 1.5549, 16.9951, 6.7470
0.3472, -0.1138, -0.8412, 3.4451, -1.4805, 33.3323
0.1255, -0.2799, -0.8954, 0.7012, -15.4439, 49.9787
-0.0019, -0.6460, -0.9414, -6.8598, -11.6634, 43.0274
-0.0875, -1.0391, -0.9357, -6.0671, -15.0171, 24.0030
-0.2078, -0.9882, -0.8818, 0.7622, -10.3220, -17.0945
-0.0295, -0.6826, -0.8503, 1.4939, 9.5561, -40.6311
0.0400, -0.4984, -0.7514, -0.4573, 9.5561, -55.2652
0.1906, -0.0932, -0.8241, -5.4573, -8.6756, -45.9360
0.2536, 0.1940, -0.8310, -6.3720, 2.2390, -18.4970
0.3465, 0.0756, -0.9039, -1.9207, 4.3122, 16.8689
0.2390, -0.1115, -0.8954, 5.8841, -2.2122, 40.8933
0.0655, -0.3465, -0.9299, 5.0305, -8.1268, 50.6494
0.0109, -0.6890, -0.9275, -3.3232, 8.1537, 49.3079
-0.0465, -1.0528, -0.9517, -4.8476, -5.7488, 25.7713
-0.1875, -0.9422, -0.9275, -0.8232, -5.5659, -16.0579
-0.0028, -0.6671, -0.8812, -3.9939, 11.0805, -38.8628
0.0098, -0.4568, -0.7296, -10.7012, 16.5073, -51.2409
0.1780, -0.0824, -0.8000, -19.7866, 0.0439, -37.5213
0.2466, 0.1439, -0.8030, -23.3841, 5.7146, -14.1677
0.3507, 0.0793, -0.8955, -18.6280, 5.2878, 18.9421
0.2307, -0.0787, -0.9871, -6.7378, 4.8000, 44.3079
0.1641, -0.2858, -1.0747, -2.7744, 4.5561, 58.0274
0.0219, -0.6458, -1.0028, -6.9207, 10.8976, 52.6616
-0.1109, -0.9766, -1.0674, 7.0427, 7.6049, 32.9055
-0.2135, -1.0417, -0.8229, 20.0915, 17.6049, -17.0945
0.0084, -0.7403, -0.6998, 16.7988, 30.5317, -46.4848
0.1022, -0.3844, -0.5939, -4.3598, 11.2024, -61.3018
0.2966, 0.0527, -0.7018, -16.8598, -6.9073, -42.7043
0.3781, 0.2860, -0.8142, -19.1159, -9.5902, -13.0091
0.4056, 0.1956, -0.9348, -3.8720, -11.2976, 26.3201
0.2075, -0.0999, -0.8764, 6.8598, -7.3951, 57.4787
0.1951, -0.3942, -0.9190, 3.5671, -11.8463, 67.1738
-0.0532, -0.8078, -1.0060, -3.1402, -16.2976, 52.7835
-0.1829, -1.1068, -1.0760, 4.9085, -25.7488, 16.9909
-0.2866, -0.7987, -0.9913, 11.0061, -3.7976, -35.9360
-0.0198, -0.5988, -0.8715, 7.7744, 32.1780, -53.3140
0.1421, -0.2770, -0.8138, 1.9207, 25.1049, -60.0823
0.2666, 0.0579, -0.8069, -3.8720, 6.0805, -35.9969
0.3704, 0.2087, -0.7954, -6.3720, 8.1537, -1.6677
0.3519, 0.0290, -0.8947, -1.9207, 0.8976, 27.7226
0.2429, -0.1773, -0.9482, 5.3963, 5.2268, 57.2957
0.0800, -0.4617, -1.0321, 2.7134, -9.4073, 57.4787
-0.0684, -0.8753, -1.0426, 1.0671, -5.3220, 37.1738
-0.2604, -1.1063, -1.0108, 12.1037, 2.9707, -5.2652
-0.0883, -0.8397, -0.8757, 12.7744, 34.9220, -41.0579
0.1218, -0.4957, -0.7559, 1.3110, 49.4951, -54.0457
0.1640, -0.0476, -0.7410, -7.2866, 28.5805, -48.8018
0.3435, 0.2505, -0.8305, -8.8720, 30.1659, -15.1433
0.4360, 0.1732, -0.8825, -5.6402, 24.0683, 16.5640
0.3223, -0.0954, -0.9254, 4.8476, 16.6902, 49.3079
0.1676, -0.3410, -1.0504, 7.1037, 2.7878, 61.9299
0.0336, -0.7168, -1.0187, 10.4573, 23.3976, 53.6372
-0.0836, -1.0323, -0.9941, 25.8232, 26.5683, 24.2470
-0.0881, -1.0513, -0.7263, 22.2256, 30.3488, -25.6311
0.1360, -0.6640, -0.7407, 1.9207, 51.3854, -58.6799
0.3566, -0.2482, -0.7977, -10.9451, 63.0927, -49.5945
0.4974, 0.0390, -0.8304, -19.8476, 38.6415, -23.6189
0.4645, 0.0754, -0.8455, -17.3476, 22.4829, 0.6494
0.2511, -0.1013, -0.9156, -6.9817, 22.1780, 22.8445
0.2098, -0.3634, -0.8774, 3.0793, 34.7390, 33.8811
0.2412, -0.6544, -0.8645, 12.3476, 49.5561, 26.6250
0.2544, -0.9544, -0.5847, 24.0549, 42.8488, 9.9177
0.2065, -0.8640, -0.4980, 23.4451, 29.0073, -37.2165
0.4036, -0.6263, -0.5953, 4.2988, 16.3244, -52.8872
0.4822, -0.2015, -0.6193, -16.7988, -3.4927, -50.1433
0.5216, 0.1517, -0.8550, -16.7988, -0.6268, -24.4116
0.4810, 0.1183, -1.0401, 0.2134, 0.9585, 9.0640
0.3118, -0.1204, -0.8403, 12.2866, 3.2756, 30.6494
0.2802, -0.3319, -0.9587, 19.7866, 3.5805, 30.4055
0.2619, -0.6636, -0.7787, 19.4817, 30.2878, 29.9177
0.3508, -0.9649, -0.6671, 22.1646, 31.0805, 11.1372
0.3352, -0.9519, -0.5143, 15.3354, 13.9463, -28.8628
0.4785, -0.6649, -0.6107, 0.7012, 13.7634, -43.9848
0.4277, -0.2875, -0.7158, -12.2256, -6.9073, -50.5091
0.4614, 0.1078, -0.9830, -4.2988, -8.1878, -29.2896
0.4666, 0.1816, -0.9760, 7.0427, 2.9707, -0.5091
0.4202, -0.0283, -0.8289, 14.9085, 15.5927, 30.4665
0.4391, -0.2476, -0.8244, 13.6890, 12.4829, 45.8933
0.3912, -0.6099, -0.7149, 5.0305, 8.9463, 42.9665
0.3591, -1.0396, -0.6611, 4.0549, 1.0195, 21.6250
0.2437, -1.1154, -0.5240, 4.6646, -2.1512, -19.4726
0.4786, -0.7257, -0.6454, -4.0549, 20.2268, -40.1433
0.4741, -0.3452, -0.7792, -6.6768, -7.8220, -47.3994
0.4043, 0.0423, -0.8901, -5.4573, -15.0780, -33.8018
0.4098, 0.1727, -0.9205, 2.1037, 3.5805, -5.3872
0.4493, -0.0313, -0.7942, 8.6280, 16.9341, 24.0640
0.4510, -0.2480, -0.7252, 6.2500, 14.2512, 42.3567
0.4640, -0.5554, -0.6229, 0.8841, -1.4195, 38.8201
0.3672, -0.9133, -0.6831, -0.4573, -1.7244, 26.7470
0.3379, -1.0958, -0.5428, 4.6037, -1.7244, -1.5457
0.4064, -0.8282, -0.5817, -1.1280, 4.2512, -34.7774
0.5253, -0.5342, -0.7578, -3.2622, -4.5293, -45.2043
0.3912, -0.1495, -0.8675, 0.0915, -21.6634, -43.7409
0.3968, 0.1061, -0.9394, 1.1280, -2.6390, -23.3750
0.4859, 0.0991, -0.9362, 11.0671, 22.9707, 8.8811
0.4993, -0.1514, -0.7412, 14.0549, 23.0927, 34.6738
0.4695, -0.3653, -0.7335, 9.6037, -10.8707, 43.7591
0.3304, -0.7360, -0.6045, 7.7744, -15.3829, 38.4543
0.3047, -1.1343, -0.4989, 11.2500, -16.7244, 11.1372
0.3174, -0.9906, -0.5091, 2.5915, -13.4317, -34.7774
0.4938, -0.6121, -0.7837, -7.1646, 0.0439, -44.8994
0.5413, -0.2064, -0.9089, -11.1280, -15.3829, -41.5457
0.4129, 0.0964, -1.0268, -6.1280, -4.6512, -21.2409
0.4316, 0.0613, -1.0301, -0.5183, 22.6659, 8.5152
0.4343, -0.1976, -0.8096, 1.9817, 33.6415, 30.8933
0.4266, -0.3604, -0.8263, 1.0061, 21.3854, 29.7348
0.3531, -0.7177, -0.6464, -3.6280, 31.6902, 26.4421
0.3663, -1.0141, -0.4882, 9.6037, 31.0195, 8.1494
0.3705, -0.9647, -0.3714, 10.2134, 19.4951, -33.1921
0.5015, -0.6694, -0.5142, -9.3598, 20.5927, -51.5457
0.6455, -0.2901, -0.7734, -24.1768, 4.3122, -51.6677
0.6034, 0.0234, -0.9213, -19.0549, -15.9927, -34.9604
0.4750, 0.1003, -1.0165, -5.7622, -4.2244, -7.7043
0.4064, -0.0697, -0.8205, 8.5061, 14.0073, 17.5396
0.5040, -0.2516, -0.7389, 13.5671, 25.1659, 32.6006
0.4598, -0.6215, -0.4601, 10.5183, 3.5805, 25.2835
0.4445, -0.9132, -0.3987, 15.3963, 10.3488, 7.4787
0.4943, -0.9187, -0.2888, 8.0183, 4.5561, -26.8506
0.6586, -0.5957, -0.6221, -8.5061, -3.9805, -37.1555
0.6534, -0.2453, -0.7169, -18.8110, -28.6146, -30.3262
0.4925, -0.0120, -0.9510, -12.5915, -44.4073, -14.1677
0.3901, 0.0640, -0.9518, 6.5549, -32.8220, 5.9543
0.3270, -0.0479, -0.7457, 19.9695, -2.9439, 23.6372
0.5324, -0.2410, -0.6071, 20.9451, 1.1415, 43.6372
0.5569, -0.5407, -0.3144, 12.4695, -44.3463, 46.5031
0.4764, -0.6512, -0.3159, 2.7744, -83.6756, 40.8323
0.4746, -0.5024, -0.4058, 4.1768, -94.0415, 39.6738
0.5406, -0.3648, -0.4434, -13.0793, -123.7366, 54.6128
0.4172, -0.3704, -0.7418, -32.5305, -193.7976, 52.4787
0.2179, -0.3807, -1.0099, -25.0305, -251.1756, 42.2957
-0.2641, -0.3198, -1.0944, 1.9207, -229.1024, 26.5030
-0.3376, -0.4750, -1.1897, 10.3963, -124.0415, 29.7348
-0.0438, -0.6049, -1.0900, 6.1890, -72.3951, 43.4543
-0.0394, -0.6801, -1.1031, -4.9085, -91.9073, 29.5518
-0.3057, -0.9773, -1.1594, -18.7500, -101.9683, 13.1494
-0.4895, -0.9570, -1.1731, -35.0305, -63.2488, -18.8628
-0.4921, -0.8437, -1.1308, -49.1768, -10.0780, -34.5335
-0.4437, -0.6169, -1.1413, -55.7622, 42.4220, -42.3384
-0.3164, -0.1876, -1.2166, -51.9817, 88.3976, -33.4969
-0.1503, 0.0802, -1.0904, -35.7012, 131.3244, -7.9482
-0.0523, -0.0368, -0.7891, -27.4085, 137.6049, 9.7957
-0.0969, -0.1362, -0.8645, -14.6037, 134.4951, 16.0762
0.0006, -0.2565, -0.6985, -3.5671, 140.2268, 25.1006
0.1660, -0.5554, -0.5466, -0.7622, 124.1293, 25.3445
0.1891, -0.7335, -0.4435, 2.8354, 97.3610, -0.0213
0.2156, -0.6527, -0.4395, -3.1402, 68.8244, -35.4482
0.4604, -0.4564, -0.5329, -16.6768, 48.4585, -23.8628
0.4967, -0.2530, -0.5427, -34.8476, -2.0293, -24.2896
0.2991, 0.0484, -0.9225, -34.6037, -29.4073, -21.6677
0.1842, 0.2209, -1.1371, -11.0061, -14.8951, -3.6799
0.1904, 0.0882, -1.0934, 18.6890, 16.8122, 20.8933
0.3556, -0.1467, -0.9506, 36.0061, 34.4951, 40.4665
0.1579, -0.4212, -0.8634, 42.0427, 25.2878, 27.6616
0.2067, -0.7412, -0.6948, 38.6280, 44.4341, 16.5640
0.1646, -1.0056, -0.5118, 28.8110, 70.4707, -15.4482
0.5045, -0.8781, -0.5355, 2.5305, 77.3000, -37.5213
0.7621, -0.5529, -0.6170, -31.8598, 13.8244, -37.8872
0.5307, -0.0753, -0.8829, -41.9817, -59.3463, -40.9969
0.1576, 0.2518, -1.1759, -19.3598, -50.1390, -30.4482
0.0978, 0.2351, -1.1479, 15.2744, 9.9829, 1.6860
0.2636, 0.0412, -0.9064, 31.4939, 46.7512, 26.9909
0.3271, -0.2175, -0.7688, 33.3841, 37.0561, 36.8689
0.3405, -0.5194, -0.6875, 25.5183, 36.1415, 29.3689
0.3890, -0.8709, -0.5743, 23.8720, 52.1780, 12.4177
0.5188, -0.9976, -0.5130, 10.7622, 22.4220, -15.5091
0.6188, -0.7573, -0.4788, -3.7500, -19.7122, -32.7652
0.5411, -0.4414, -0.9166, -11.4329, -56.9683, -42.3994
0.2685, -0.0678, -0.9813, -5.8841, -50.5659, -38.4969
0.1620, 0.1449, -1.0657, 9.2988, -18.7366, -17.7652
0.2466, 0.0878, -1.0216, 22.8963, 24.0683, 7.8445
0.4124, -0.0625, -0.9291, 24.0549, 34.8000, 30.4055
0.4523, -0.2942, -0.8969, 24.4207, 15.4707, 43.1494
0.4438, -0.5749, -0.7587, 13.2012, 7.9098, 38.5152
0.3572, -0.9531, -0.6116, 11.7378, 8.4585, 23.1494
0.3396, -1.0933, -0.4995, 0.3354, 9.0683, -15.5701
0.4469, -0.7655, -0.4965, -21.9207, -0.0780, -41.4238
0.4184, -0.4262, -0.7626, -26.9207, -22.0293, -54.0457
0.2858, 0.0607, -0.9976, -19.4817, -21.6024, -39.9604
0.2439, 0.2651, -0.9664, -5.4573, -1.9073, -15.5091
0.3683, 0.1568, -0.9647, 18.0793, 25.1659, 18.9421
0.4559, -0.0848, -0.7677, 26.1280, 14.7390, 42.6616
0.3415, -0.3687, -0.7162, 27.4085, 2.3610, 46.5031
0.3411, -0.7112, -0.6641, 20.0915, -1.9683, 37.7835
0.3552, -1.0507, -0.5201, 18.3841, 9.7390, 13.3323
0.4784, -0.9100, -0.6105, 8.6890, 7.9707, -24.9604
0.5251, -0.6633, -0.6376, 9.9085, -8.7366, -38.2530
0.4037, -0.3904, -0.7334, 30.4573, -51.6634, -48.0091
0.1365, -0.0510, -0.6183, 34.6646, -50.6878, -34.8384
0.2613, 0.1669, -0.9257, 28.7500, -25.8707, -14.4116
0.4538, 0.0044, -1.0109, 34.9695, 1.9341, 18.9421
0.6742, -0.3013, -0.9706, 38.8720, -3.9195, 48.3933
0.5918, -0.6063, -0.9226, 34.9085, -36.6634, 62.4787
0.1727, -0.9954, -0.8047, 28.8110, -44.2854, 36.5640
0.0262, -1.1846, -0.7545, 14.2378, -4.4683, -2.7043
0.1727, -0.9912, -0.6701, -10.3354, 28.7634, -38.5579
0.3976, -0.6511, -0.7807, -29.9085, 37.6659, -51.6677
0.4637, -0.2578, -0.8256, -36.1280, 8.7024, -45.7530
0.3364, -0.0229, -0.9860, -27.4695, 4.1902, -23.0701
0.2761, -0.0326, -0.9366, -14.0549, 26.0195, 3.8201
0.3679, -0.1690, -0.8224, -0.0305, 34.6171, 27.9055
0.3362, -0.4498, -0.6825, 2.4085, 18.2756, 29.7957
0.3082, -0.7333, -0.6109, 2.4085, 28.3366, 24.3079
0.3943, -0.9266, -0.4841, 12.1646, 30.8366, 7.5396
0.4104, -0.9683, -0.3661, 5.2744, -1.2366, -28.2530
0.4206, -0.7125, -0.5504, -13.8720, -13.2488, -47.8872
0.4121, -0.2931, -0.7998, -18.7500, -12.7610, -50.6311
0.4205, -0.0280, -1.0137, -3.7500, -0.5049, -28.5579
0.4187, 0.0154, -0.9815, 14.1768, 9.0683, 3.0274
0.4284, -0.1492, -0.8255, 19.9085, 9.8610, 25.1006
0.3763, -0.3389, -0.6418, 18.9329, 2.3610, 35.8933
0.2971, -0.5753, -0.6567, 6.3720, 14.0073, 30.8933
0.3860, -0.8986, -0.4905, 1.2500, 17.5439, 20.9543
0.4454, -0.9173, -0.5315, -7.1646, -4.6512, -9.7774
0.4349, -0.6634, -0.6507, -19.8476, -7.0293, -27.0945
0.4490, -0.5486, -0.7355, -24.7866, -19.7732, -33.0091
0.3956, -0.1481, -1.0097, -13.0183, -12.0293, -28.0701
0.3766, -0.0129, -0.9495, -0.0305, 13.2756, -4.7774
0.3772, -0.2083, -0.7906, 6.7378, 27.6659, 12.2348
0.5105, -0.3505, -0.6775, 9.9085, 14.0073, 21.0152
0.4639, -0.5842, -0.5981, 7.5915, 1.4463, 16.8689
0.4732, -0.8286, -0.5029, 4.3598, 9.1293, 10.4665
0.5081, -0.9078, -0.4288, 4.5427, -5.3829, -10.2652
0.4004, -0.6478, -0.6001, -8.0793, -24.2854, -29.6555
0.3445, -0.3478, -0.8032, -18.0183, -41.0537, -37.8262
0.2653, 0.0557, -1.0268, -2.8963, -5.5659, -23.1921
0.4411, 0.0450, -0.9641, 8.9939, 16.0195, 4.6738
0.4753, -0.1477, -0.7744, 15.2134, 11.5073, 29.9177
0.4651, -0.3941, -0.6548, 10.6402, -13.0659, 39.5518
0.4573, -0.6774, -0.6500, 2.3476, -2.3951, 38.2104
0.4731, -1.0157, -0.5289, -1.9817, -10.4439, 23.1494
0.4064, -0.9661, -0.5903, -7.5305, -26.9073, -11.6677
0.3537, -0.6546, -0.7520, -20.0915, -28.0049, -31.3628
0.3374, -0.2284, -1.0193, -12.4085, -11.7244, -31.5457
0.3642, -0.0104, -0.8996, -3.8720, 23.3976, -6.5457
0.4858, 0.0533, -0.8728, 6.4329, 36.7512, 26.3811
0.4339, -0.1768, -0.7001, 6.0671, 14.0683, 43.8201
0.3997, -0.3245, -0.7688, 4.0549, -20.0171, 50.8933
0.2447, -0.6046, -0.7225, 0.7012, -30.7488, 36.1372
0.2776, -1.0187, -0.5647, 4.4207, -19.9561, 26.8689
0.2836, -1.0650, -0.5327, 3.9939, -12.9439, -8.4360
0.4128, -0.7356, -0.5669, -7.4695, -15.9927, -30.9970
0.4346, -0.3635, -0.8412, -13.8110, -49.3463, -34.2896
0.2795, -0.0139, -0.9424, -9.3598, -43.0659, -18.2530
0.2404, 0.0649, -1.0142, 4.6646, -11.0537, 5.7713
0.2722, -0.1802, -0.9044, 19.3598, 13.0317, 30.1006
0.3709, -0.4022, -0.8181, 20.8841, 1.0195, 39.4909
0.1887, -0.7824, -0.6273, 11.6159, -10.2000, 21.9909
0.2814, -0.9849, -0.6684, 2.7134, 12.4220, 14.0640
0.3660, -0.7880, -0.6987, -14.9085, -1.4195, -13.7409
0.4148, -0.5084, -0.8042, -26.5549, -15.8707, -21.9726
0.4396, -0.2693, -1.0104, -23.5671, -44.1024, -12.7043
0.2745, -0.2031, -0.8950, -11.7988, -46.6024, 4.0030
0.3427, -0.1749, -1.1039, 10.0915, -38.3098, 19.4299
0.0812, -0.4142, -0.7762, 27.3476, -9.5293, 18.6982
-0.0227, -0.5978, -0.6496, 22.5915, 38.9463, 11.5030
0.2608, -0.6859, -0.7239, 15.7622, 76.1415, 8.5762
0.5317, -0.6634, -0.6967, 6.7378, 15.7756, -9.3506
0.2004, -0.6781, -0.4457, -13.0183, -34.5902, -24.2896
0.2969, -0.4677, -0.7964, -31.7378, -16.8463, -15.6311
0.4725, -0.2281, -1.0975, -28.4451, -27.4561, -14.9604
0.2957, -0.2694, -1.0121, -15.8841, -68.6146, -11.9726
0.2138, -0.3573, -0.9670, 15.7012, 1.6293, 10.0396
0.1855, -0.4719, -0.8068, 22.9573, 49.1293, 20.0396
0.2461, -0.6224, -0.6818, 9.2378, 46.8122, 6.8689
0.2903, -0.6793, -0.4496, 1.6159, -0.3220, 1.1982
0.1500, -0.6261, -0.6040, -32.1037, -34.1634, -20.4482
0.3830, -0.4098, -0.8660, -40.9451, -13.3098, -15.5091
0.4776, -0.2740, -1.0225, -30.2134, -50.8707, -12.3994
0.2568, -0.2573, -1.1893, -6.9817, -47.3951, -12.0335
0.1899, -0.4060, -0.8544, 16.4939, 33.1537, 11.9909
0.4114, -0.4328, -0.9762, 19.7256, 70.0439, 27.6006
0.3568, -0.5001, -0.9392, 7.6524, 37.3610, -4.8994
0.1496, -0.5824, -0.3834, 4.4207, -6.9073, -4.8994
0.1268, -0.4968, -0.6139, -21.7378, -5.9927, -20.0823
0.5000, -0.3758, -0.7812, -33.5671, 5.6537, -3.9848
0.6264, -0.1771, -0.9824, -23.9939, -53.7976, 4.0030
0.0578, -0.3889, -0.7691, -27.8354, -108.0659, -13.9848
0.0735, -0.4210, -1.0095, 12.0427, -0.3829, 19.6738
0.1776, -0.5196, -0.8083, 23.1402, 38.4585, 15.4665
0.1168, -0.6128, -0.7363, 14.0549, 53.0927, 5.2226
0.5344, -0.4152, -1.2405, 15.0915, 47.4829, -4.0457
0.2288, -0.5043, -0.5059, 4.1159, 16.6293, -15.7530
0.2826, -0.3795, -0.6812, -15.1524, 10.1659, -7.5823
0.4473, -0.2735, -0.7549, -23.0793, 2.6049, 2.5396
0.4588, -0.2363, -0.7405, -22.3476, -43.7366, 12.4787
0.1203, -0.3186, -0.8585, -16.9817, -75.5659, 4.6128
0.1602, -0.4308, -1.0340, 21.4939, 1.2634, 24.7957
0.1390, -0.5704, -0.8216, 28.2622, 35.4707, 16.7470
0.1507, -0.5939, -0.9035, 23.3841, 60.2268, 5.7713
0.6215, -0.4550, -1.0663, 20.3963, 40.2878, 0.6494
0.2366, -0.4354, -0.6324, -1.1890, -10.9317, -17.9482
0.3761, -0.3515, -0.7725, -13.1402, -13.6756, 2.1128
0.5540, -0.2685, -0.8679, -9.4817, -33.6146, 11.2591
0.1802, -0.4360, -0.7009, -19.1159, -104.7122, 3.6982
0.0503, -0.4046, -1.0892, 11.9207, -9.7732, 19.1250
0.0959, -0.5313, -0.7454, 17.3476, 57.7878, 14.1860
-0.0205, -0.6557, -0.6281, 10.5793, 75.5927, 0.8323
0.5110, -0.5782, -0.6642, 12.4085, 38.8244, 8.8201
0.1949, -0.4879, -0.7355, -19.7256, -26.8463, -22.8262
0.4408, -0.3498, -0.8361, -25.5183, -8.3098, -3.6189
0.6325, -0.2415, -0.9778, -12.1646, -58.0049, 4.9787
-0.0404, -0.4730, -0.6747, -18.6890, -105.8707, -8.0701
-0.1218, -0.4696, -0.9419, 10.4573, 19.3122, 11.1372
0.1548, -0.5058, -0.7020, 16.7378, 94.5561, 9.9787
0.3797, -0.5504, -0.6677, 8.3841, 72.2390, 1.0152
0.4808, -0.5796, -0.3964, -0.3354, -21.8463, -8.1921
0.1634, -0.4142, -0.7968, -19.2378, -59.0415, -18.4970
0.4104, -0.2778, -0.9298, -17.5915, -22.8829, 1.8689
0.4280, -0.3079, -0.6520, -11.5549, -67.3951, 8.8811
0.0852, -0.2722, -0.9888, 1.5549, -65.5049, 16.5640
0.1013, -0.3398, -0.7086, 22.4085, -2.0902, 28.9421
0.0577, -0.4435, -0.7921, 21.8598, 7.9707, 27.1738
-0.0539, -0.6457, -0.5480, 2.4085, 13.0317, -6.2409
0.3595, -0.5867, -0.6846, -2.4085, 4.4341, 11.3811
0.3730, -0.4577, -0.8078, -18.8720, -36.7854, -6.0579
0.3952, -0.4011, -0.8714, -23.7500, -87.3951, 2.8445
0.2266, -0.2715, -1.1011, -4.2378, -128.9195, 11.0152
-0.1111, -0.4279, -0.9379, 2.6524, -110.8098, 7.7226
-0.2778, -0.3969, -1.1512, 28.2622, -16.0537, 17.8445
-0.0709, -0.4478, -0.9679, 35.5183, 53.0317, 16.6250
-0.1275, -0.6054, -0.6193, 21.9207, 66.3244, 0.5884
0.2952, -0.5752, -0.6973, -2.7744, 41.7512, 2.7226
0.3505, -0.4221, -0.7750, -30.1524, -21.7244, 2.3567
0.3021, -0.3430, -0.8041, -30.8232, -102.6390, 0.0396
0.0348, -0.3240, -1.0355, -16.9207, -147.5780, -0.8140
-0.3777, -0.4292, -1.0078, -6.0061, -98.8585, -2.1555
-0.3620, -0.4645, -1.1148, 24.9695, 42.4829, 12.7835
0.0483, -0.5875, -0.7989, 35.7622, 111.6293, 18.5762
-0.0872, -0.6805, -0.5038, 22.6524, 45.4098, -9.2896
0.1449, -0.6396, -0.5778, -2.2866, -7.0293, -7.8262
0.0629, -0.4498, -0.7809, -27.7744, -40.2000, -17.2165
0.0905, -0.2868, -1.0616, -24.1159, -54.5902, -7.0945
0.0087, -0.3335, -0.9173, -8.9329, -85.3829, -15.5091
-0.1818, -0.3671, -1.2435, 6.8598, -22.8220, -4.4116
-0.0524, -0.4235, -0.9654, 29.1768, 75.5927, 17.6616
0.2548, -0.5249, -0.9252, 26.9207, 61.3854, 24.4299
0.0127, -0.5514, -0.9069, 4.1159, -15.3220, -25.3872
-0.1875, -0.5931, -0.5416, -10.1524, -20.2000, -12.6433
0.0927, -0.4017, -0.8388, -26.1280, -22.0293, -6.2409
0.2045, -0.2714, -1.0557, -13.4451, -51.7854, -1.6067
0.0150, -0.4417, -0.7605, -5.2744, -90.3829, -6.9116
-0.2983, -0.3940, -1.3556, 10.7012, -7.3341, 2.8445
-0.0689, -0.4527, -1.0143, 28.2012, 74.7390, 11.9299
0.1081, -0.5407, -0.8484, 26.7378, 55.8976, 12.9665
-0.2152, -0.6083, -0.6295, 5.0915, 13.6415, -23.6189
-0.0915, -0.5831, -0.5452, -3.9329, 25.8366, -10.1433
0.2112, -0.4838, -0.7267, -31.5549, 5.2268, -6.3018
0.1448, -0.3233, -1.0245, -32.7744, -44.4683, -3.1311
-0.0410, -0.3466, -1.0103, -16.1280, -71.7244, -12.8262
-0.2711, -0.3256, -1.3508, 10.7012, -13.4927, -4.1067
-0.1226, -0.4158, -1.0165, 38.5061, 73.2756, 6.9909
-0.0328, -0.5398, -0.8831, 40.4573, 84.6171, 8.0884
-0.2342, -0.6065, -0.8074, 32.5915, 83.1537, -17.8872
0.0700, -0.5651, -0.8242, 28.8110, 87.3000, -13.3140
0.0414, -0.6612, -0.4927, 5.6402, 79.3122, -26.6067
0.2988, -0.6223, -0.5804, -33.0793, 50.4707, -20.8140
0.5279, -0.3320, -0.8351, -48.1402, -9.7122, -12.4604
0.1362, -0.2329, -1.1473, -37.9573, -53.8585, -27.5213
0.0422, -0.2548, -1.3521, 7.2866, 15.8976, -10.5701
0.1181, -0.3732, -0.9730, 41.7378, 77.9707, 6.4421
0.1070, -0.5958, -0.5837, 46.6159, 85.6537, 3.2713
0.3104, -0.6389, -0.4432, 32.8963, 74.3732, 5.8323
0.1193, -0.7290, -0.0596, -8.2012, 13.7634, -19.2287
0.1708, -0.5146, -0.5129, -47.4085, 14.4951, -24.2287
0.4700, -0.3437, -0.6221, -66.5549, -12.7610, -15.0823
0.2800, -0.0774, -1.2280, -36.8598, -43.1268, -9.5945
0.3232, -0.1096, -1.4899, 20.7622, -4.5902, 5.0396
0.2396, -0.4168, -0.9435, 58.6280, 35.4098, 25.7104
0.0723, -0.6580, -0.6810, 56.4939, 41.6293, 15.5274
0.1738, -0.7312, -0.6218, 38.6890, 56.1415, 3.6372
0.3042, -0.7434, -0.2704, 2.7134, 33.0317, -8.4970
0.3077, -0.5817, -0.5205, -48.2622, -3.0049, -26.8506
0.4524, -0.3168, -0.7942, -70.2134, -33.7976, -20.8140
0.2241, -0.1335, -1.1440, -46.7378, -58.4317, -14.8994
0.2562, -0.1187, -1.5941, 15.3963, 9.8610, 1.8079
0.3035, -0.3795, -1.0001, 58.8720, 60.8976, 18.8811
0.2996, -0.5961, -0.7220, 61.7378, 56.1415, 25.2835
0.2588, -0.6408, -0.6374, 43.0793, 51.9951, 6.6860
0.2548, -0.7269, -0.2384, 12.8354, 27.4220, -6.9116
0.2611, -0.6170, -0.3669, -39.4817, 1.3854, -25.8140
0.4732, -0.3557, -0.6512, -66.4329, -12.8220, -20.6921
0.3566, -0.0963, -1.1321, -56.1890, -68.3098, -18.4970
0.2754, -0.0645, -1.5175, -5.7012, -32.8220, -14.3506
0.4686, -0.2913, -1.1423, 49.1159, 35.0439, 23.2713
0.4532, -0.5288, -0.8111, 62.7744, 45.4098, 36.4421
0.1750, -0.7350, -0.5318, 53.5061, 26.8732, 17.6616
0.3146, -0.7164, -0.6341, 38.0793, 32.6049, 9.4909
0.1690, -0.7462, -0.2867, -8.0793, -6.2366, -23.0091
0.3189, -0.5028, -0.4852, -45.5793, -5.0780, -28.9238
0.4870, -0.2752, -0.7586, -63.0793, -39.5293, -17.7043
0.3368, -0.1771, -1.0946, -43.0793, -56.9073, -13.0091
0.3539, -0.1680, -1.4600, 5.7012, -8.3098, 1.0152
0.4628, -0.4215, -1.0411, 48.9329, 44.0683, 22.6006
0.3788, -0.6182, -0.8237, 58.1402, 49.0683, 28.8811
0.2344, -0.6477, -0.7182, 55.5183, 48.7024, 9.6128
0.2467, -0.7311, -0.2755, 32.5915, 35.6537, -0.2043
0.2394, -0.6869, -0.2672, -26.1280, 0.2878, -28.7409
0.4573, -0.3557, -0.6048, -59.4817, -2.8220, -24.5335
0.4881, -0.1387, -0.9977, -50.2134, -41.4195, -10.9970
0.2776, -0.1934, -1.2620, -10.7622, -40.9927, -5.5091
0.3744, -0.3668, -1.1533, 34.4817, 21.6902, 22.7226
0.4785, -0.5701, -0.7483, 48.0793, 48.1537, 32.1738
0.2817, -0.7919, -0.4373, 37.7744, 22.5439, 18.3323
0.2734, -0.8588, -0.2279, 14.8476, 3.2756, -1.6677
0.3277, -0.7821, -0.3600, -10.2744, -25.8098, -16.8506
0.3556, -0.5280, -0.5325, -32.7134, -46.4195, -29.4116
0.3389, -0.1895, -0.9233, -35.8232, -57.2122, -25.5701
0.2663, -0.0836, -1.1697, -13.0183, -45.5659, -15.3262
0.3515, -0.1034, -1.1760, 20.8232, 4.4341, 12.5396
0.4157, -0.3068, -0.8844, 33.5671, 14.7390, 35.8933
0.3472, -0.4819, -0.8382, 31.7378, -4.1634, 42.9055
0.1345, -0.6968, -0.7018, 17.9573, 7.7268, 27.1128
0.1649, -0.9725, -0.4636, 10.0305, 14.2512, 15.5884
0.2110, -1.0089, -0.4034, -9.6646, -5.6268, -22.3384
0.3824, -0.7257, -0.4920, -30.1524, -8.7976, -35.9969
0.4271, -0.3538, -0.9764, -36.9207, -42.0902, -37.5213
0.2790, -0.0762, -1.1362, -23.8110, -38.0659, -27.0335
0.1932, -0.0119, -1.1939, 1.7378, -0.2610, -3.5579
0.3253, -0.2127, -0.9128, 16.7988, 33.5805, 24.0030
0.4237, -0.3374, -0.8744, 17.7744, 19.9220, 38.5762
0.1991, -0.5051, -0.7104, 6.7988, 18.8854, 29.2470
0.3011, -0.7413, -0.6124, -5.9451, 29.9220, 31.0152
0.2504, -1.0022, -0.4863, -6.1890, 5.8366, 11.1372
0.1750, -1.0060, -0.4186, -16.7988, -8.9805, -31.3628
0.3197, -0.7501, -0.5692, -26.3110, 12.1171, -39.0457
0.4963, -0.4090, -0.8954, -22.2866, -14.4683, -52.5823
0.3888, -0.0636, -0.9367, 1.7988, -17.1512, -40.0823
0.3342, 0.0224, -0.9528, 19.1159, 8.1537, -13.6799
0.3561, -0.1273, -0.7261, 23.6280, 24.4341, 12.6006
0.4664, -0.2573, -0.7018, 20.4573, 2.9707, 31.0762
0.3438, -0.4533, -0.6351, 10.9451, -31.6024, 35.1616
0.2535, -0.6964, -0.5859, -1.0671, -20.3829, 29.3079
0.2394, -0.9881, -0.5574, -7.1037, -25.9927, 15.4665
0.2714, -0.9316, -0.6389, -8.3841, -27.0902, -16.6677
0.2925, -0.6633, -0.7170, -9.4207, -26.7854, -29.6555
0.2952, -0.3385, -0.9814, -0.2134, -35.1390, -30.3872
0.2628, -0.0719, -0.9838, 5.7622, -22.9439, -17.2774
0.2953, -0.0148, -0.9802, 11.7988, 2.9098, 12.4787
0.3134, -0.2482, -0.8390, 8.3841, 12.3000, 33.4543
0.3168, -0.3717, -0.8457, 8.2012, -7.4561, 43.2104
0.0883, -0.6169, -0.8654, 3.0793, -4.6512, 30.7104
0.2007, -1.0443, -0.6791, -1.3720, 10.6537, 26.2591
0.2077, -1.1520, -0.5646, -1.4939, 9.2512, -7.8872
0.2942, -0.8327, -0.5743, -13.9939, 5.8976, -33.6189
0.3460, -0.5786, -0.7413, -20.0915, -24.2244, -51.1189
0.2445, -0.2033, -0.8959, -8.0793, -26.6634, -46.4238
0.2551, -0.0059, -0.9159, 0.2134, -8.7976, -20.4482
0.3057, 0.0666, -0.9073, 6.7988, 9.1902, 7.9665
0.3475, -0.0949, -0.8067, 6.9207, 14.3732, 32.5396
0.3556, -0.2866, -0.7828, 6.6159, -17.0293, 50.2835
0.1815, -0.6293, -0.6916, 0.0305, -22.1512, 43.4543
0.1752, -0.9885, -0.6851, -2.3476, -2.5171, 35.0396
0.1324, -1.1600, -0.5575, -0.2134, -4.5293, 6.7470
0.2207, -0.8845, -0.6152, -9.9085, 2.6049, -21.6677
0.3229, -0.6584, -0.6487, -16.2500, -18.1268, -35.3262
0.2497, -0.2584, -0.7683, -14.7256, -45.4439, -29.1677
0.2012, 0.0316, -0.8042, -13.9329, -37.6390, -8.9848
0.2419, 0.1197, -0.9587, -1.2500, -2.9439, 25.0396
0.3487, -0.0993, -0.8735, 11.9817, 5.1049, 56.7470
0.2989, -0.3770, -0.8249, 14.3598, -33.9195, 61.3201
0.1414, -0.7556, -0.6729, 5.2134, -37.3341, 52.2957
0.0909, -1.0985, -0.7651, -0.0305, -32.7000, 32.3567
0.0082, -1.0905, -0.7227, -4.0549, -35.2000, -1.0579
0.0983, -0.8759, -0.6815, -8.8720, -31.3585, -19.7165
0.0793, -0.6992, -0.7128, -10.8841, -52.5171, -41.1189
-0.0169, -0.2715, -0.9565, -9.2988, -56.7244, -39.5945
0.0918, 0.0220, -0.9215, -7.6524, -37.2732, -17.3994
0.2096, 0.0895, -1.0081, 1.0061, -27.4561, 16.5640
0.0569, -0.1090, -0.9593, 3.8720, -8.8585, 34.0031
0.0522, -0.3190, -1.0640, 2.7744, -21.6024, 52.9665
-0.0511, -0.6911, -0.8417, -5.0305, -10.3220, 42.8445
-0.0590, -1.0862, -0.8373, -7.7134, -13.3707, 32.4787
-0.2539, -1.1478, -0.8024, -2.2866, -15.2610, -6.2409
-0.1220, -0.7889, -0.7261, -5.5183, 12.3610, -31.5457
0.0646, -0.6659, -0.6144, -18.0183, -8.5537, -51.7287
0.0942, -0.3121, -0.6379, -18.3841, -22.3341, -45.3262
0.1664, 0.1004, -0.8857, -15.6402, -38.7976, -18.4970
0.1572, 0.2303, -0.9640, -6.7378, -44.1634, 8.2104
-0.0858, -0.0750, -0.9442, 1.4329, -30.2000, 27.2957
-0.1200, -0.2994, -0.9899, 7.1646, -1.8463, 46.5640
-0.0340, -0.5280, -1.0265, 7.7134, 7.1171, 50.1006
-0.0466, -0.9078, -0.8951, 3.1402, 14.9829, 39.1250
-0.2319, -1.2083, -0.8264, 2.2256, -15.0171, 3.9421
-0.2861, -0.9307, -0.8107, -1.4329, -12.9439, -34.7165
-0.1931, -0.6453, -0.7360, -10.0915, 3.2756, -56.7287
-0.0047, -0.2376, -0.7968, -17.7744, 1.2024, -55.2043
0.1434, 0.1767, -0.8892, -12.3476, 14.0683, -19.4726
0.2135, 0.1822, -0.9156, -3.3232, 16.2634, 11.0762
0.1095, -0.1395, -0.8451, -0.7622, -0.6878, 28.3933
0.0168, -0.3294, -0.9746, 0.0305, -8.4927, 45.4055
-0.0545, -0.5947, -0.9679, 4.7256, 11.2634, 45.2226
-0.1339, -1.0192, -0.9066, 12.2866, 11.6902, 30.9543
-0.3431, -1.1860, -0.7746, 16.3720, -8.8585, -12.8262
-0.3026, -0.8178, -0.7220, 3.4451, 6.8732, -49.5335
-0.1744, -0.4579, -0.7169, -8.3841, 32.3000, -67.3994
0.1897, -0.0001, -0.8452, -14.9695, 28.1537, -39.5945
0.3052, 0.2058, -0.8920, -9.3598, 24.0683, -11.0579
0.3302, 0.0304, -0.9637, -1.6159, -4.5902, 19.3079
0.0900, -0.2295, -0.9575, 4.4207, -21.7854, 42.7835
-0.1097, -0.4315, -1.0730, 8.6890, -10.0171, 50.5274
-0.1958, -0.7830, -0.9932, 2.5305, 23.3976, 43.0274
-0.2045, -1.0668, -0.8740, 3.4451, 31.3854, 23.9421
-0.2643, -1.1041, -0.8072, 1.7378, 17.5439, -22.5823
-0.1287, -0.7726, -0.7667, -13.7500, 15.4707, -54.4116
0.0363, -0.3295, -0.9682, -22.6524, 23.7634, -58.8628
0.1214, 0.0766, -0.9409, -19.0549, 50.0439, -30.8750
0.2128, 0.1088, -0.9973, -12.1646, 51.0805, 0.5884
0.1281, -0.0920, -0.8945, -6.7988, 36.9951, 13.7591
0.0353, -0.2604, -0.9781, -0.0915, 34.4951, 28.1494
0.0655, -0.4828, -0.9227, 1.8598, 56.0805, 29.1250
0.1560, -0.7902, -0.8534, 8.9939, 46.0195, 30.2835
0.0894, -1.0664, -0.5961, 11.9817, 12.0561, -3.8628
0.0062, -0.9318, -0.5704, 1.1280, -6.2976, -45.4482
0.0133, -0.6796, -0.6067, -21.8598, 12.1171, -64.8994
0.2010, -0.2789, -0.7762, -34.6646, 21.5073, -67.8262
0.3602, 0.1086, -1.0142, -29.2378, 15.2878, -50.2043
0.2847, 0.2277, -1.1433, 0.1524, 27.3000, -21.3018
0.2192, -0.0132, -1.0248, 25.0305, 32.8488, 2.0518
0.3061, -0.2263, -0.8445, 36.4939, 41.3244, 19.4909
0.1891, -0.4881, -0.7455, 38.0793, 27.4829, 19.0030
0.1633, -0.8527, -0.5793, 44.4817, 37.8488, 10.7713
0.2145, -1.1106, -0.3284, 35.9451, 40.9585, -19.8994
0.5118, -0.8217, -0.4545, 6.0061, 30.3488, -39.4726
0.6075, -0.4323, -0.5721, -21.8598, -22.5171, -43.0701
0.4457, -0.0197, -0.9722, -26.6159, -64.7122, -25.9970
0.1653, 0.2131, -1.2039, -8.3841, -49.9561, -5.5701
0.0713, 0.1607, -1.1489, 20.5183, 9.1902, 29.0640
0.2253, -0.1494, -0.9359, 36.1890, 42.9098, 54.7348
0.2396, -0.4861, -0.8015, 35.2134, 13.5195, 58.6372
0.1637, -0.9619, -0.6685, 23.8720, 10.2268, 40.9543
0.1180, -1.2514, -0.5126, 14.5427, 14.1902, 4.7957
0.2063, -1.0590, -0.4665, -11.7988, 11.0195, -33.1921
0.4314, -0.6909, -0.6546, -25.8841, 7.3610, -48.0091
0.3790, -0.2609, -0.8723, -30.4573, -26.6634, -50.1433
0.1683, 0.0990, -1.0795, -19.2988, -31.4195, -32.5823
0.1646, 0.1976, -1.1658, 1.8598, 10.4707, -7.6433
0.2823, -0.0725, -0.9192, 21.7378, 43.3976, 24.1860
0.3640, -0.3094, -0.8566, 30.5793, 36.3244, 41.0152
0.2975, -0.6148, -0.6562, 22.7744, 28.7634, 37.8445
0.2848, -0.9559, -0.5919, 17.7744, 18.9463, 25.8933
0.2615, -1.1265, -0.4327, 9.4207, 2.5439, -9.8994
0.3334, -0.9129, -0.5102, -12.1037, -4.6512, -35.2652
0.4282, -0.5827, -0.7437, -28.7500, -15.4439, -46.1799
0.3330, -0.0899, -1.0027, -25.7622, -34.4073, -38.0091
0.2388, 0.1063, -1.1052, -5.8841, -11.2976, -15.9970
0.2834, -0.0079, -1.0338, 14.6037, 14.9220, 14.9177
0.3163, -0.2422, -0.8284, 25.9451, 18.5195, 35.2835
0.2367, -0.5107, -0.6392, 23.0183, -1.0537, 35.5884
0.2232, -0.8221, -0.6154, 5.9451, 11.8732, 22.9055
0.3865, -1.0512, -0.5213, 1.6768, 16.6293, 8.6372
0.4145, -0.9409, -0.5197, -13.1402, -13.0049, -21.3628
0.4016, -0.7363, -0.6259, -26.0061, -38.1878, -36.3018
0.2547, -0.3909, -0.8511, -25.8232, -51.5415, -40.4482
0.1217, -0.0508, -0.9917, -20.1524, -40.0171, -32.8262
0.2013, 0.0774, -1.0796, -0.3963, 12.8488, -9.5335
0.3538, -0.0869, -0.9548, 19.2378, 29.8610, 19.7348
0.3998, -0.3147, -0.8386, 29.4817, 22.3000, 33.9421
0.2327, -0.6179, -0.6227, 23.5061, 2.1171, 27.4787
0.2485, -0.8898, -0.6713, 16.7378, 27.5439, 22.3567
0.3738, -1.0820, -0.4651, 11.4329, 20.2268, 1.7470
0.3320, -0.8939, -0.5170, -13.2622, -12.7000, -32.9482
0.3396, -0.5488, -0.7158, -32.7134, -30.4439, -45.7530
0.2773, -0.1782, -0.8716, -36.3110, -33.7366, -34.7774
0.2081, 0.1075, -1.1093, -22.7134, -24.7732, -20.7530
0.3060, 0.1150, -1.1201, 4.7256, 13.8244, 11.8079
0.3340, -0.1717, -0.8701, 22.6524, 19.6171, 38.3933
0.3667, -0.3539, -0.7877, 22.7134, 3.2756, 48.0274
0.2125, -0.6924, -0.5795, 9.1159, -6.2366, 36.6860
0.2404, -0.9682, -0.6741, 4.2378, 8.0927, 30.1616
0.2664, -1.0852, -0.5397, -4.7866, -3.6146, -7.8872
0.3033, -0.7993, -0.6418, -15.8841, -6.7854, -32.3384
0.3580, -0.5380, -0.7545, -18.5671, -13.4317, -44.6555
0.2726, -0.1831, -0.9181, -15.0305, -24.3463, -36.2409
0.2519, 0.0802, -1.0378, -3.5061, -5.9317, -21.4238
0.3488, 0.0546, -0.9553, 11.3110, 18.6415, 12.7835
0.3665, -0.1669, -0.8198, 18.5061, 6.4463, 36.3811
0.2841, -0.3930, -0.7057, 14.8476, -18.6756, 40.3445
0.1976, -0.6803, -0.7614, 0.0915, -11.9073, 32.4787
0.2472, -0.9721, -0.7050, -2.1646, 3.3976, 22.6006
0.2446, -1.0315, -0.6570, -0.5793, -3.7366, -6.7287
0.2579, -0.7277, -0.7549, -3.8720, -6.0537, -30.5091
0.2475, -0.4559, -0.7877, -3.9329, -12.8220, -38.0701
0.2394, -0.1474, -0.8431, -1.1280, -13.0659, -25.6311
0.2918, 0.0326, -0.8845, 4.1768, -2.2122, -1.9726
0.2906, -0.0365, -0.8173, 5.8841, -0.9317, 21.6860
0.3195, -0.2285, -0.8375, 9.0549, -1.6634, 40.5884
0.2626, -0.4359, -0.7952, 8.8720, -15.0780, 46.6860
0.2065, -0.7292, -0.7878, 5.3354, -15.4439, 37.3567
0.1917, -1.0983, -0.6942, 9.9695, 0.7146, 24.4299
0.1132, -1.0536, -0.6291, 3.0793, -0.5049, -15.0213
0.1899, -0.7606, -0.6636, -9.8476, 4.1293, -32.7043
0.2812, -0.4332, -0.9046, -18.0793, -25.6268, -43.8628
0.2105, -0.0194, -0.9163, -8.2622, -12.7610, -26.9726
0.2489, 0.0889, -0.9978, 2.2256, 9.9829, -0.5701
0.2489, -0.1274, -0.8465, 10.1524, 12.9707, 22.3567
0.2496, -0.3253, -0.7680, 10.2744, -10.4439, 34.0031
0.1709, -0.5189, -0.7846, 7.5915, -13.0049, 32.6616
0.2328, -0.7829, -0.7386, 7.1037, 6.0805, 30.5884
0.1936, -1.0154, -0.6094, 10.4573, 0.5927, 15.1616
0.1577, -0.9506, -0.5348, -2.4695, -6.7244, -13.6799
0.1578, -0.6956, -0.6871, -19.8476, 6.2024, -26.8506
0.2818, -0.3925, -0.8910, -31.0671, -18.5537, -28.4970
0.2813, -0.0858, -0.9692, -26.3720, -41.2366, -19.2896
0.1177, -0.0877, -1.0028, -11.1890, -22.7000, -7.3384
0.1931, -0.2659, -0.9816, 10.0915, 11.7512, 17.6616
0.2221, -0.4545, -0.8780, 21.4939, 22.1171, 23.8811
0.1839, -0.6168, -0.8147, 21.1280, 31.5073, 18.8201
0.1974, -0.8059, -0.7992, 23.6890, 40.2878, 11.5030
0.1940, -0.8373, -0.6049, 22.1646, 36.8122, -7.7043
0.2608, -0.7166, -0.5762, 2.4085, 18.5805, -26.6677
0.2671, -0.5836, -0.5338, -21.9817, -0.3220, -28.8018
0.3187, -0.3205, -0.6221, -46.6768, -36.2976, -25.0213
0.2680, -0.1047, -0.8271, -49.6037, -59.4683, -15.0213
0.1095, -0.1124, -1.0231, -25.7012, -44.1024, -6.1189
0.2275, -0.2164, -1.2888, 13.5061, 11.3244, 14.7957
0.3163, -0.4587, -0.9497, 41.9207, 39.6171, 24.7348
0.2696, -0.6440, -0.7369, 43.6280, 45.5927, 28.5762
0.2654, -0.7625, -0.6712, 33.6280, 27.6659, 15.8933
0.1830, -0.7411, -0.7079, 21.7988, -4.4683, -0.5701
-0.0838, -0.6862, -0.4907, -22.3476, -17.5780, -33.5579
0.2993, -0.4129, -0.6515, -50.0915, 17.5439, -18.7409
0.5504, -0.1400, -0.9364, -48.6890, -15.9927, -7.8262
0.2740, -0.1763, -1.1467, -25.0915, -64.8341, -10.8140
0.1863, -0.3322, -1.1340, 24.0549, -8.4927, 20.7104
0.1153, -0.5286, -0.8075, 37.5305, 31.9341, 24.4909
0.1124, -0.6707, -0.6482, 33.6280, 34.8000, 17.6006
0.3784, -0.6090, -0.8506, 23.0183, 17.7878, 5.1616
0.0460, -0.7263, -0.3021, -15.5793, -26.8463, -22.8872
0.2123, -0.5231, -0.6225, -47.8963, -16.1756, -21.1799
0.4017, -0.3255, -0.7634, -59.6037, -35.0780, -14.3506
0.0961, -0.2045, -0.9477, -40.7622, -61.7244, -17.5213
0.1271, -0.2340, -1.3830, 15.3354, 3.5805, 5.9543
0.2364, -0.3854, -0.9672, 52.1037, 41.9951, 19.7348
0.2673, -0.5777, -0.6915, 51.1890, 38.2756, 23.5762
0.1060, -0.7677, -0.3074, 23.6280, -2.0293, -6.6067
0.0558, -0.8174, -0.2025, -2.4085, -14.7122, -8.8628
0.1963, -0.5994, -0.5923, -49.9695, -24.9561, -27.8872
0.3436, -0.2392, -0.9452, -63.5061, -37.0293, -20.0823
0.1888, -0.0557, -1.1790, -41.7988, -49.2244, -15.9970
0.2615, -0.1078, -1.5645, 16.5549, 17.8488, 11.3201
0.2715, -0.3615, -0.9924, 48.2622, 43.5195, 28.6372
0.2133, -0.5402, -0.8006, 45.2134, 39.2512, 32.4177
0.0795, -0.7370, -0.4947, 26.3720, 28.2146, 14.0640
0.1612, -0.8045, -0.4886, 4.6037, 16.8732, 2.4787
0.0880, -0.6741, -0.3972, -39.7866, -17.9439, -27.6433
0.2736, -0.4046, -0.6581, -66.3719, -27.6390, -26.6067
0.4014, -0.1252, -1.0905, -62.7744, -57.9439, -20.8140
0.2549, -0.0007, -1.5362, -22.5305, -33.6756, -16.9726
0.3540, -0.1853, -1.4018, 41.7378, 34.3732, 16.2591
0.3224, -0.4155, -0.9388, 74.7866, 42.9098, 34.8567
-0.0320, -0.6673, -0.4402, 64.5427, 16.9951, 13.0274
0.1506, -0.7457, -0.5532, 38.9939, 29.9220, 7.6006
0.1415, -0.8070, -0.1525, -29.0549, -15.0171, -25.9970
0.3411, -0.4448, -0.5436, -70.2744, -34.7732, -21.0579
0.3356, -0.1651, -0.8449, -78.4451, -78.6756, -15.1433
-0.0111, -0.1009, -1.2447, -44.0549, -70.3220, -9.1067
0.1624, -0.1407, -1.6208, 22.6524, 14.2512, 15.6494
0.2217, -0.3499, -1.1238, 66.3719, 54.8610, 27.7226
0.1673, -0.4942, -0.8371, 73.3841, 53.2756, 30.7104
0.1387, -0.6535, -0.4543, 46.8598, 48.8854, 17.6006
0.0668, -0.8791, 0.0136, -2.5305, 8.6415, 2.6006
0.1545, -0.6629, -0.3480, -67.2256, -36.0537, -18.9238
0.2974, -0.3163, -0.7393, -94.8476, -49.8341, -15.4482
0.1377, -0.0463, -1.3829, -69.7866, -64.9561, -19.7774
0.0945, -0.0628, -1.7245, 4.2378, 11.9951, -8.8628
0.3443, -0.2367, -1.2378, 79.0549, 70.4098, 24.6128
0.3105, -0.4492, -0.8293, 90.7622, 49.4951, 37.4177
0.1564, -0.6955, -0.3987, 53.2012, 39.1902, 18.4543
-0.0203, -0.9083, 0.1269, -9.5427, -7.4561, -5.0213
0.1904, -0.5860, -0.5030, -65.8232, -26.8463, -18.4970
0.4194, -0.2996, -0.8159, -78.4451, -40.3220, -12.6433
0.3095, -0.1004, -1.3387, -39.1768, -49.7732, -2.0945
0.2262, -0.1149, -1.6829, 27.8354, -1.9683, 8.3933
0.1564, -0.3279, -1.0730, 74.1159, 48.2756, 29.2470
0.2040, -0.4760, -0.7621, 83.8719, 50.4707, 40.1616
0.1619, -0.6890, -0.3858, 53.3841, 27.6659, 23.2104
0.0080, -0.8808, -0.0540, -18.9939, -21.8463, -8.9238
0.2123, -0.5835, -0.4487, -80.8232, -37.6390, -17.4604
0.2605, -0.2191, -0.9463, -90.9451, -67.5780, -16.1189
0.0093, -0.0817, -1.4968, -38.0183, -40.9317, -12.3994
0.2916, -0.1736, -1.6765, 50.2744, 32.9707, 21.9909
0.2176, -0.4547, -0.9492, 79.9695, 45.8366, 31.5030
0.0696, -0.6590, -0.4777, 64.2988, 34.1902, 29.2470
0.0956, -0.7375, -0.4673, 18.6890, 18.4585, 8.3933
0.0717, -0.7619, -0.2278, -48.2012, -12.7610, -17.2165
0.3645, -0.4798, -0.5182, -87.1646, -40.5049, -10.6311
0.2201, -0.0766, -1.1819, -78.3841, -79.5293, -7.3384
0.0615, 0.0134, -1.6036, -11.0061, -27.0902, 7.1738
0.1221, -0.1718, -1.3136, 64.6037, 45.4098, 39.9787
0.0829, -0.4564, -0.8361, 80.1524, 57.1780, 42.3567
-0.1342, -0.7247, -0.3423, 61.9817, 43.8244, 21.3201
-0.0570, -0.9797, -0.1450, 12.2866, 25.4707, -5.3262
0.2662, -0.8706, -0.2889, -51.1890, -10.4439, -22.2774
0.3902, -0.5160, -0.5613, -95.2744, -81.5415, -28.9848
0.1577, -0.0585, -1.3589, -65.7622, -91.9683, -21.4238
0.0719, -0.0028, -1.8097, 3.9939, -37.0902, -6.3018
0.0770, -0.2164, -1.3021, 70.7012, 42.1171, 25.2835
0.0326, -0.4418, -0.8253, 85.3354, 52.4829, 31.3811
-0.1389, -0.7135, -0.2831, 52.7744, 52.7878, 8.1494
0.1369, -0.8917, -0.0692, 0.9451, 31.9951, 3.2104
0.2566, -0.7341, -0.3057, -63.5671, -41.1756, -18.8018
0.2350, -0.4564, -0.5460, -101.3719, -101.3585, -22.3994
0.0699, -0.0430, -1.4017, -86.6159, -124.8341, -20.0823
-0.1889, -0.0840, -1.5080, -18.6280, -47.9439, -7.0335
0.0122, -0.2199, -1.5222, 50.2744, 21.6293, 18.0274
0.0312, -0.4185, -1.0341, 78.3841, 51.6902, 17.9665
-0.1761, -0.7055, -0.5068, 67.4085, 44.3122, 1.6250
-0.1297, -0.8101, -0.3558, 21.1890, 44.7390, -22.0945
0.2344, -0.6569, -0.3426, -27.7744, 26.6902, -23.5579
0.4639, -0.3840, -0.6328, -66.1890, -51.4195, -22.5213
0.2012, -0.0465, -1.1863, -61.2500, -90.3829, -11.1799
-0.0661, -0.0282, -1.5239, -17.5305, -47.2122, 1.2591
-0.0495, -0.2307, -1.2970, 32.4085, 19.6171, 26.6250
-0.0396, -0.4285, -1.0854, 55.2134, 43.5805, 27.6616
-0.1189, -0.6533, -0.8108, 48.2012, 61.3854, 16.7470
0.0557, -0.8373, -0.5174, 38.0793, 64.3732, 11.6250
0.1104, -0.8617, -0.4170, 11.8598, 28.2756, -15.3872
0.1215, -0.6539, -0.4475, -28.5671, -7.2122, -31.3628
0.2103, -0.2716, -0.7480, -51.9817, -29.5902, -27.3384
0.1940, 0.0311, -1.1308, -31.6159, -25.3829, -12.7043
0.1379, 0.0184, -1.3982, 8.9329, -0.0171, 7.6006
0.0445, -0.2487, -1.0399, 36.4329, 27.9707, 25.5884
0.0809, -0.4303, -0.9348, 42.3476, 39.4951, 31.2591
-0.0156, -0.6348, -0.8130, 31.8598, 47.3000, 23.8811
0.1367, -0.8568, -0.7082, 19.0549, 53.7634, 13.6982
0.0938, -1.0836, -0.5491, 11.9207, 31.4463, -11.8506
0.1980, -0.8449, -0.5498, -8.5061, 30.7756, -34.9604
0.2692, -0.6259, -0.5301, -33.8720, 2.4220, -48.0701
0.2889, -0.1856, -0.9278, -25.8232, -15.9927, -44.5945
0.2134, 0.0126, -1.0132, -11.9817, -14.4683, -29.5945
0.1955, 0.0806, -1.1036, 11.4329, 14.4951, -1.6067
0.2426, -0.0850, -0.8782, 23.3841, 34.6171, 20.7713
0.3237, -0.2852, -0.8194, 20.8841, 9.9220, 36.7470
0.1745, -0.5257, -0.7656, 17.5915, 13.4585, 35.7713
0.2040, -0.8261, -0.7021, 8.6890, 11.8122, 30.5884
0.1373, -1.1391, -0.5981, 4.4207, -3.8585, 9.4299
0.0985, -1.0188, -0.6460, -5.7622, -10.2610, -26.3628
0.2019, -0.7325, -0.6642, -20.2134, -8.1268, -44.2287
0.2456, -0.3596, -0.9158, -19.2988, -17.4561, -54.8994
0.1541, -0.0290, -1.0783, -3.5671, -2.9439, -42.2774
0.2497, 0.0754, -0.9763, 13.0793, 34.0683, -12.6433
0.3505, -0.0371, -0.8276, 17.8354, 40.8976, 18.3933
0.4075, -0.2489, -0.7155, 16.1890, 14.0073, 36.7470
0.2365, -0.4873, -0.7010, 12.0427, -15.5659, 38.9421
0.1651, -0.8348, -0.6783, 6.0061, -4.0415, 29.5518
0.1250, -1.1518, -0.5666, 3.5671, -5.6878, 8.5762
0.1634, -1.0087, -0.6145, -8.8720, 0.2268, -25.0213
0.2753, -0.7540, -0.6350, -18.0183, -3.1878, -40.8140
0.2674, -0.4122, -0.9070, -8.8110, -22.3951, -48.9238
0.1474, -0.0932, -0.9926, 1.8598, -21.4805, -40.9969
0.1943, 0.0350, -0.9791, 9.6646, 5.3488, -17.8872
0.3196, 0.0048, -0.8621, 15.2134, 28.7024, 16.8079
0.3790, -0.1947, -0.8288, 16.6159, 11.7512, 36.7470
0.2145, -0.4089, -0.8051, 12.8354, -25.8707, 42.6616
0.1016, -0.6923, -0.8480, 7.9573, -0.5049, 40.1006
0.1848, -0.9865, -0.7599, 3.0183, 9.3732, 30.7104
0.1343, -1.1097, -0.6861, 2.0427, 3.2756, 3.2713
0.1029, -0.9631, -0.6255, -8.2012, -5.5049, -34.8994
0.1888, -0.6917, -0.6399, -19.3598, 2.6049, -52.8872
0.2428, -0.2974, -0.7239, -21.3720, -9.6512, -57.3994
0.3019, -0.0303, -0.8185, -15.6402, 2.1171, -32.8262
0.4139, 0.1401, -0.9764, 1.5549, 10.4707, 1.0762
0.3547, -0.0128, -0.8287, 14.5427, -0.6268, 32.2348
0.2963, -0.2639, -0.8409, 18.2012, -29.1024, 50.5884
0.1124, -0.5416, -0.7535, 13.1402, -25.3829, 44.9177
0.1039, -0.8614, -0.7982, 6.7378, -2.2732, 36.7470
0.1330, -1.1853, -0.7613, 7.4695, 9.6780, 16.3201
0.0866, -1.1185, -0.6490, -4.0549, -3.9805, -29.0457
0.1977, -0.8265, -0.6953, -10.5183, 7.6049, -45.4482
0.2548, -0.4138, -0.8629, -15.8232, -6.1146, -54.0457
0.2353, -0.0016, -0.8921, -15.0305, 4.4341, -35.7530
0.2799, 0.0920, -0.9318, -6.3110, 14.5561, -9.4726
0.3239, -0.0510, -0.8712, 8.0183, 13.5195, 19.0640
0.2538, -0.2450, -0.7825, 13.2622, -7.1512, 32.2957
0.1480, -0.4656, -0.7695, 14.2988, -2.2122, 33.1494
0.2235, -0.7471, -0.7324, 11.4329, 14.2512, 30.5274
0.2714, -1.0706, -0.6356, 6.5549, 9.9220, 12.7835
0.2444, -1.0049, -0.6048, -7.1646, -4.7732, -17.5823
0.2911, -0.7488, -0.6617, -16.5549, -9.6512, -28.1311
0.1970, -0.5857, -0.7279, -11.2500, -41.7854, -43.9848
0.0463, -0.2061, -0.8954, -7.7744, -43.9805, -44.4116
0.0976, 0.0490, -0.9708, -2.7134, 0.6537, -27.4604
0.3725, 0.0589, -1.0119, 11.6768, 35.4098, 9.6738
0.4834, -0.1605, -0.7797, 15.1524, 17.9098, 37.5396
0.3834, -0.3152, -0.8124, 14.8476, -30.5049, 57.1738
0.0802, -0.5866, -0.7784, 6.8598, -33.7366, 46.1982
0.0066, -0.9410, -0.8145, 8.4451, -14.2854, 39.5518
0.0293, -1.1298, -0.6989, 11.1890, 13.7024, 14.7957
0.1512, -1.0071, -0.5876, -4.7866, 3.1537, -26.7896
0.2499, -0.7722, -0.6534, -10.5793, 9.1293, -38.6799
0.2438, -0.4335, -0.7122, -16.0671, -16.7854, -47.5823
0.1620, -0.0739, -0.9329, -12.3476, -15.6878, -33.0701
0.1727, 0.0448, -1.0096, -2.2256, 8.9463, -11.3018
0.2274, -0.1002, -0.9127, 8.5061, 28.8244, 19.4909
0.2580, -0.2592, -0.7977, 9.0549, 11.6902, 36.5640
0.2021, -0.4598, -0.8286, 4.6037, 3.2146, 37.2348
0.2069, -0.7926, -0.7327, 1.3110, 15.7146, 38.3933
0.1344, -1.1208, -0.6111, 9.9695, 14.4341, 19.3079
0.0947, -1.0470, -0.5061, -3.6890, 4.3732, -23.6189
0.2463, -0.8038, -0.5618, -20.0915, 15.1049, -38.3140
0.3445, -0.4969, -0.7880, -23.2012, -11.6634, -47.0945
0.1922, -0.0979, -0.9708, -16.0061, -22.9439, -36.1189
0.1109, 0.0267, -0.9608, -5.3963, -3.4317, -17.5823
0.2466, 0.0242, -0.9665, 9.7866, 26.0805, 15.5884
0.3737, -0.1856, -0.7863, 16.6159, 15.6537, 35.8323
0.2578, -0.4146, -0.7325, 12.8963, -19.7122, 41.4421
0.1684, -0.7029, -0.7541, 8.8720, -9.4073, 37.6006
0.1722, -1.0502, -0.6963, 8.6890, -3.2488, 26.0152
0.1291, -1.1650, -0.6190, 2.1037, -8.7976, -8.7409
0.2172, -0.8870, -0.6672, -10.4573, -3.9805, -32.1555
0.2450, -0.6452, -0.7635, -14.1159, -18.0049, -50.0823
0.1300, -0.2435, -0.9266, -13.5061, -28.1878, -50.5701
0.1216, 0.0512, -0.9869, -8.3841, 0.8366, -28.5579
0.2820, 0.1040, -1.0104, 5.3354, 28.9463, 4.5518
0.3478, -0.1369, -0.8227, 13.7500, 19.9829, 30.5884
0.3830, -0.3004, -0.8437, 15.7012, -6.9073, 51.9909
0.0917, -0.5993, -0.6592, 6.7988, -30.5659, 39.9177
0.0485, -0.8845, -0.7821, -0.3354, 7.6659, 35.6494
0.1772, -1.1240, -0.6299, -1.3720, 16.3244, 12.7226
0.2414, -0.9462, -0.6386, -9.1159, 0.5927, -21.5457
0.2822, -0.7162, -0.6871, -15.3354, -11.7854, -35.3872
0.2140, -0.4632, -0.6755, -21.7378, -39.2854, -40.7530
0.0928, -0.1168, -0.8393, -21.7988, -37.7000, -31.2409
0.1446, 0.0841, -0.9867, -11.0061, -6.0537, -6.2409
0.2878, 0.0063, -0.9570, 7.2256, 10.8366, 27.0518
0.2726, -0.2435, -0.8488, 16.2500, -9.4073, 42.6006
0.2074, -0.4111, -0.9299, 20.5183, -36.0537, 51.2591
0.0035, -0.6929, -0.7716, 12.6524, -17.5780, 40.8323
0.0028, -0.9555, -0.7902, 11.3110, 2.6049, 29.6738
0.0381, -1.1212, -0.6938, 8.2622, 6.5073, 4.4909
0.1468, -0.8706, -0.7087, -2.1646, 7.1171, -25.3872
0.2130, -0.6414, -0.7208, -10.2134, 1.9951, -39.2896
0.2031, -0.3975, -0.6522, -21.5549, -22.4561, -36.4238
0.1711, -0.0465, -0.8273, -19.4817, -20.8707, -15.9970
0.2164, 0.0674, -0.9492, -10.6402, -9.5902, 6.9299
0.2024, -0.1420, -0.9391, 5.3354, -1.8463, 31.9909
0.2380, -0.3455, -0.9633, 18.1402, -15.0780, 47.3567
-0.0402, -0.6442, -0.8821, 21.3720, -36.0537, 37.2957
-0.1583, -1.0361, -0.7882, 13.0793, -15.0171, 15.7104
-0.1024, -1.1355, -0.7053, 5.4573, 9.4951, -16.9116
0.1600, -0.8309, -0.6448, -6.4329, 27.4220, -26.7896
0.2881, -0.6384, -0.6832, -15.0915, -9.4073, -40.5701
0.1990, -0.2650, -0.8364, -21.6768, -45.8707, -38.4360
0.1200, 0.0854, -0.9672, -13.6280, -22.9439, -8.9848
0.2779, 0.1399, -1.0642, 2.1646, -0.8707, 26.1372
0.2290, -0.1083, -0.9552, 13.8720, -11.9073, 51.8689
0.0253, -0.3632, -0.8878, 20.5183, -30.8707, 62.8445
-0.1612, -0.7077, -0.7945, 8.9939, -11.2366, 44.4299
-0.2606, -1.1417, -0.8025, 1.6768, -3.4927, 26.9909
-0.1614, -1.1290, -0.7330, -3.0793, 8.9463, -7.3384
0.0542, -0.8076, -0.6691, -14.4207, 18.3366, -28.3750
0.1924, -0.5725, -0.7452, -19.4207, -9.5293, -39.8994
0.0488, -0.4152, -0.7792, -22.5915, -39.4683, -44.1677
-0.0079, -0.0707, -0.9143, -15.0305, -31.2366, -26.3628
0.1005, 0.1128, -1.0013, -2.3476, 1.5683, 1.5030
0.2370, -0.0588, -0.9413, 10.0305, 15.7756, 33.5762
0.1497, -0.2571, -0.9939, 19.9695, -17.8829, 50.9543
-0.2014, -0.5208, -0.9193, 22.1037, -5.6878, 39.9177
-0.1448, -0.8308, -0.9105, 12.5915, 22.4829, 38.5152
-0.1416, -1.0877, -0.8634, 12.8354, 28.8244, 16.7470
-0.2567, -1.0810, -0.7158, 11.2500, 23.4585, -30.1433
-0.1142, -0.8444, -0.6890, -5.3354, 38.3366, -50.9360
0.1438, -0.5653, -0.6978, -31.1890, 28.8854, -63.0701
0.1793, -0.0772, -0.9565, -35.2134, 18.3976, -52.0945
0.1854, 0.1393, -1.1235, -18.1402, 27.9707, -25.6311
0.0995, -0.0131, -1.0854, 7.1037, 47.9707, 0.3445
0.0923, -0.2611, -0.9124, 20.8841, 60.8976, 19.7348
0.0433, -0.4642, -0.8502, 31.0061, 62.9707, 15.1616
0.1182, -0.7482, -0.7086, 24.2378, 49.6780, 15.5884
0.0701, -1.0761, -0.5391, 28.5671, 33.3366, -1.5457
0.1178, -1.0847, -0.3979, 16.4329, 27.1171, -38.8628
0.2199, -0.7617, -0.5165, -3.3232, 35.8976, -54.7165
0.4652, -0.3207, -0.6296, -26.1280, 25.8976, -56.9726
0.5779, 0.0366, -0.7994, -33.4451, -1.2366, -33.2530
0.3902, 0.1313, -1.0812, -16.3110, -18.6146, -7.7043
0.2922, -0.0787, -0.9802, 13.8110, -5.4439, 29.5518
0.2674, -0.2854, -0.9219, 26.3110, -7.7610, 42.5396
0.1532, -0.6049, -0.7551, 27.0427, 2.4220, 40.7104
0.1352, -0.9879, -0.6126, 24.3598, 9.3122, 32.1738
0.1507, -1.1422, -0.4302, 16.1890, 6.9341, -2.0945
0.2676, -0.8960, -0.5045, -6.9817, 5.0439, -30.5701
0.3872, -0.6283, -0.6091, -23.2622, -11.3585, -41.3018
0.3239, -0.3048, -0.8582, -24.6037, -54.2854, -39.7165
0.0975, -0.0133, -0.9976, -13.3232, -52.7000, -26.7287
0.0478, 0.0791, -1.1319, 6.7988, -7.7000, -3.3750
0.2383, -0.1347, -0.9110, 20.5183, 35.9585, 27.2957
0.4546, -0.3483, -0.8349, 23.4451, 18.8244, 52.4177
0.2341, -0.5712, -0.8249, 13.9939, -16.4805, 47.7835
0.0863, -0.8608, -0.7420, 3.2012, -12.8220, 38.9421
0.0584, -1.0759, -0.6334, 3.4451, -4.4683, 21.3811
0.0337, -1.0353, -0.5820, -3.9329, -4.6512, -19.1067
0.1990, -0.7222, -0.7244, -5.6402, 11.5073, -32.0335
0.2522, -0.4353, -0.8459, -4.4817, -3.4317, -41.6677
0.2435, -0.1279, -0.9504, 1.7988, -6.6024, -25.2652
0.2490, 0.0140, -0.9019, 6.8598, 2.1171, -1.6677
0.2465, -0.1353, -0.7921, 8.5061, 5.4707, 25.0396
0.2811, -0.3478, -0.7246, 6.1890, -10.3220, 41.8689
0.1426, -0.4830, -0.8328, 1.2500, -29.7122, 43.1494
0.0758, -0.7246, -0.8991, 0.6402, -2.7000, 40.8323
0.1625, -1.0149, -0.8046, 8.4451, 15.4707, 30.3445
0.1070, -1.1113, -0.6241, 10.2744, 4.8610, -7.8262
0.1358, -0.8599, -0.5961, -0.1524, 9.1902, -31.3628
0.2518, -0.5981, -0.7059, -11.0671, -5.8098, -43.5579
0.2159, -0.1729, -0.8796, -13.0793, -20.0171, -32.7043
0.2090, 0.0079, -0.9309, -12.9573, -11.4195, -9.5945
0.2595, -0.0581, -1.0172, -5.5793, -2.1512, 18.5762
0.1637, -0.2742, -0.8692, 4.6646, -0.3829, 37.7835
0.0984, -0.4489, -0.9702, 10.7012, -11.1146, 38.3323
0.0729, -0.7140, -0.8414, 10.7622, 18.5805, 31.0152
0.2076, -0.9981, -0.7223, 7.4695, 24.9829, 26.5640
0.1944, -1.1344, -0.5354, 1.3720, 4.9220, -2.9482
0.1808, -0.8480, -0.5422, -15.2134, -4.2244, -27.1555
0.2542, -0.6628, -0.7115, -25.0305, -26.2366, -40.9969
0.1154, -0.4188, -0.7158, -28.9329, -43.0659, -47.4604
0.0789, -0.1161, -0.8270, -21.5549, -19.4683, -31.1799
0.2555, 0.1135, -0.9939, -1.8598, 17.1780, 1.7470
0.4436, -0.0362, -0.8488, 16.3110, 12.6659, 40.8323
0.4424, -0.2581, -0.7678, 20.4573, -35.8098, 64.7348
-0.0103, -0.5153, -0.7368, 19.6037, -83.4927, 56.3811
-0.2265, -0.9067, -0.7743, 6.6768, -61.7854, 38.5152
-0.2760, -1.1435, -0.7564, 4.2988, -19.1634, 12.7835
-0.1456, -1.0403, -0.8290, -6.3110, 5.0439, -23.6799
0.0716, -0.8709, -0.7775, -13.8110, 7.1171, -42.7652
0.1333, -0.6607, -0.8222, -18.9329, -28.4317, -59.5945
0.0036, -0.2223, -0.9913, -18.4451, -27.2122, -54.1677
0.0114, 0.0995, -1.0886, -6.8598, 14.4341, -23.2530
0.2002, 0.0859, -1.0068, 4.8476, 41.1415, 12.4177
0.2574, -0.1519, -0.8200, 9.6037, 26.1415, 35.6494
0.1675, -0.3303, -0.8914, 13.0183, -14.5902, 50.0396
-0.1307, -0.6210, -0.7139, 4.2988, -16.0537, 36.0762
-0.0648, -0.9533, -0.7385, -1.9817, 14.8610, 29.6738
-0.0596, -1.1815, -0.6563, -0.8841, 14.9829, -0.8750
0.1241, -0.8668, -0.6775, -8.1402, 27.3610, -27.0945
0.2622, -0.6975, -0.6747, -16.4939, 8.7024, -41.3628
0.2251, -0.4917, -0.6724, -20.0305, -31.0537, -45.4482
0.0705, -0.1705, -0.7879, -22.8963, -46.8463, -38.0091
0.0823, 0.0531, -1.0205, -13.7500, -23.4927, -17.9482
0.1531, 0.0826, -1.0504, 9.1768, 4.6171, 18.0884
0.2514, -0.1901, -0.9334, 22.4695, 7.3610, 40.7713
0.1844, -0.3781, -0.9244, 30.0305, -19.6512, 57.7226
-0.0753, -0.6639, -0.8445, 13.5061, -19.0415, 36.9909
-0.1452, -0.9613, -0.8192, 6.6159, 7.7878, 30.0396
-0.0704, -1.1532, -0.6877, 1.7988, 4.1902, 1.7470
0.0525, -0.8612, -0.6813, -10.7622, 10.2878, -23.1311
0.1069, -0.6507, -0.6755, -19.0549, 2.4220, -34.1067
0.0853, -0.4469, -0.7775, -22.3476, -26.0537, -38.6189
-0.0295, -0.1484, -0.9367, -15.0305, -21.2976, -31.7287
0.0435, 0.0513, -0.9630, -4.6646, -0.0780, -12.4604
0.1789, -0.0061, -0.9631, 13.6890, 25.3488, 21.7470
0.2191, -0.2426, -0.9262, 22.3476, 13.7024, 40.3445
0.1055, -0.4600, -0.8394, 23.9329, -18.6146, 44.7348
-0.0269, -0.6682, -0.8074, 17.3476, -3.0049, 34.1250
0.0354, -0.8726, -0.7244, 9.3598, 11.2634, 30.1616
-0.0004, -1.0388, -0.5611, -0.5183, -13.3707, 15.4055
0.0415, -0.7891, -0.6584, -16.2500, -32.7610, -6.8506
-0.0350, -0.5763, -0.7007, -28.7500, -47.5780, -23.9238
-0.0625, -0.3145, -0.8935, -23.2622, -37.3341, -18.1921
-0.0388, -0.2292, -0.9796, -17.7744, -33.0659, -13.1921
-0.0268, -0.1020, -1.1467, -0.3963, -12.3951, 5.2226
-0.1109, -0.1953, -1.0521, 15.6402, 16.9951, 19.6738
-0.0438, -0.4337, -1.0016, 26.2500, 34.7390, 29.0030
-0.0236, -0.7283, -0.8251, 22.0427, 28.8854, 24.5518
-0.0137, -1.0580, -0.6325, 20.2134, 22.5439, 14.6738
-0.0552, -1.0510, -0.5283, 6.7988, 3.0317, -15.8140
0.0417, -0.7359, -0.6230, -14.0549, -13.5537, -28.2530
0.0132, -0.5279, -0.6187, -27.5915, -32.5171, -42.3384
-0.0590, -0.3039, -0.7726, -33.0793, -44.8341, -34.8384
-0.0203, -0.0257, -0.9382, -20.4573, -29.7122, -17.1555
0.1128, -0.0266, -1.0009, -6.4329, -17.2122, 7.9055
-0.0214, -0.2291, -0.9927, 7.9573, -7.9439, 22.0518
-0.0598, -0.4110, -1.0645, 19.2988, 4.6780, 31.8689
-0.1389, -0.6099, -0.9925, 28.2622, 18.1537, 29.8567
-0.1424, -0.8880, -0.8645, 22.7744, 25.1049, 18.8811
-0.1369, -1.0679, -0.7500, 20.0915, 30.4707, -4.1067
-0.0598, -0.8900, -0.6243, 1.7988, 19.9220, -30.4482
0.0023, -0.6342, -0.6541, -20.7012, 14.7390, -42.3994
0.1018, -0.3338, -0.7916, -33.8720, 9.5561, -36.4238
0.0743, -0.0685, -0.9472, -25.0915, 9.7390, -19.0457
0.0816, 0.0129, -1.0662, -6.7988, 21.8732, 3.8201
0.0457, -0.1759, -0.9819, 11.8598, 35.1659, 21.1372
0.0669, -0.3559, -0.8818, 20.0915, 34.4951, 32.6616
0.0599, -0.6409, -0.7673, 18.5061, 38.5805, 29.7957
-0.0105, -0.8929, -0.7070, 17.7134, 26.9341, 18.3933
-0.0178, -1.0502, -0.5680, 15.4573, 26.0805, -0.3262
0.0347, -0.9110, -0.5265, -5.8232, 18.8244, -29.1677
0.2016, -0.6361, -0.6912, -27.8963, 0.8366, -35.3262
0.1600, -0.2035, -0.8529, -32.7744, -20.2610, -39.2287
0.0874, 0.0198, -0.9991, -21.3720, -4.8951, -22.2165
0.1869, -0.0094, -1.1122, 5.2134, 23.5805, 8.3323
0.1227, -0.2218, -0.8799, 20.0305, 33.6415, 23.1494
0.1182, -0.4035, -0.8267, 22.6524, 26.3854, 35.2226
0.1179, -0.5960, -0.8403, 19.3598, 24.1902, 32.2348
0.0319, -0.7883, -0.8298, 16.6159, 20.7756, 25.7104
0.0669, -1.0125, -0.7143, 17.1646, 21.3854, 9.1860
-0.0628, -1.0594, -0.5218, 1.0061, 4.3732, -31.4848
0.0043, -0.7731, -0.6457, -22.7744, 27.6659, -52.7043
0.1829, -0.4252, -0.9329, -37.8963, 15.7756, -64.2896
0.2681, -0.1271, -1.0511, -22.7134, 10.2268, -53.1311
0.2226, -0.0629, -1.0555, -3.3841, 21.6902, -33.0701
0.2181, -0.1518, -0.9517, 12.2866, 42.7878, -7.2774
0.2714, -0.2871, -0.8736, 19.4207, 45.7146, 5.1006
0.2601, -0.4785, -0.7521, 16.3720, 28.8244, 8.1494
0.2572, -0.6076, -0.6732, 9.7256, 46.2024, 11.3201
0.3413, -0.7731, -0.5519, 7.4695, 39.1902, 11.0762
0.3318, -0.9669, -0.3363, 1.1890, 6.1415, -8.8628
0.3152, -0.7269, -0.5056, -20.0305, -15.1390, -28.4360
0.3372, -0.4690, -0.7272, -37.0427, -32.2732, -33.1921
0.2621, -0.1630, -0.9932, -31.1280, -36.2366, -25.9360
0.1581, 0.0011, -1.0856, -12.5305, -14.3463, -12.1555
0.2474, -0.0095, -1.1138, 15.3354, 22.7268, 16.8079
0.3254, -0.2481, -0.8215, 24.9085, 25.4098, 32.7835
0.2629, -0.4339, -0.8538, 29.6646, 13.7634, 38.5762
0.1969, -0.8102, -0.6466, 25.1524, 16.8122, 30.1616
0.1938, -1.0436, -0.4906, 21.1280, 21.0805, 9.6128
0.2789, -0.9638, -0.3857, -5.8841, 0.6537, -19.8384
0.3906, -0.7191, -0.5547, -24.7866, -17.0902, -29.2896
0.3573, -0.4509, -0.7143, -36.5549, -47.9439, -30.7530
0.1667, -0.1050, -1.0430, -31.3720, -55.9927, -23.5579
0.1088, -0.0088, -1.1777, -7.4695, -14.8341, -7.2774
0.2123, -0.1718, -1.0210, 20.0305, 32.7878, 17.4787
0.3432, -0.3640, -0.8521, 31.6159, 33.3366, 29.0640
0.2872, -0.6159, -0.6160, 28.8110, 15.1659, 22.1128
0.2385, -0.8911, -0.5809, 15.1524, 10.2268, 8.8201
0.2796, -1.0362, -0.3859, -2.5915, 7.6049, -12.7043
0.4516, -0.6840, -0.6131, -20.2134, -10.8098, -20.8750
0.3715, -0.4978, -0.6759, -23.8110, -62.1512, -25.0823
0.0793, -0.2706, -0.9409, -15.1524, -73.7976, -27.6433
-0.0166, -0.0533, -1.0952, -0.6402, -33.0049, -18.7409
0.1968, -0.0390, -1.0466, 13.3841, 28.9463, 7.2348
0.4200, -0.2428, -0.8376, 18.7500, 37.6659, 29.6128
0.4139, -0.4063, -0.8566, 20.5793, -3.7976, 45.2226
0.1350, -0.5808, -0.7827, 15.2134, -22.2732, 35.9543
0.0911, -0.8419, -0.7015, 5.0915, 8.6415, 26.3811
0.1597, -1.0822, -0.5019, -2.8354, 6.0195, 13.0884
0.2766, -0.8287, -0.6283, -15.8232, -4.9561, -10.1433
0.3705, -0.5774, -0.6638, -30.3963, -33.6146, -18.1311
0.2262, -0.2885, -0.7867, -37.1646, -58.8585, -19.5945
0.1380, -0.0887, -0.9920, -27.8963, -39.4073, -4.2896
0.1755, 0.0358, -1.0469, -7.3476, -2.7000, 26.5640
0.2164, -0.1375, -0.9213, 8.8110, 10.7756, 47.4177
0.1431, -0.2833, -0.9114, 11.9207, -18.3098, 47.3567
0.0444, -0.5236, -0.8164, 12.7134, -4.3463, 49.2470
0.0512, -0.9054, -0.7473, 8.8720, -3.4317, 35.5884
-0.0732, -1.1143, -0.6512, 7.2256, -16.8463, 2.1738
0.0525, -0.8427, -0.7009, -4.7866, 0.1049, -22.1555
0.2303, -0.7014, -0.6942, -16.2500, -8.7366, -31.9116
0.1150, -0.3334, -0.8685, -13.3232, -43.8585, -37.5823
0.0475, -0.0855, -0.9298, -13.0183, -44.1634, -28.9848
0.0250, -0.0466, -0.9507, -4.9085, -12.2732, -8.4360
0.0967, -0.1019, -1.0069, 7.2256, 8.2756, 12.7226
0.1981, -0.2655, -0.9892, 15.3963, 16.6293, 26.5640
0.1345, -0.4600, -0.9084, 16.6768, -3.4317, 35.5884
0.0510, -0.6169, -0.8967, 14.8476, 7.9707, 32.9665
0.0930, -0.8728, -0.7980, 9.3598, 8.5195, 24.3079
-0.0531, -1.0979, -0.5948, 1.3720, -7.6390, -1.0579
-0.0085, -0.8681, -0.6790, -15.2744, -4.1634, -30.3262
0.1166, -0.6930, -0.5604, -29.4207, -1.9683, -43.3750
0.1418, -0.3045, -0.8273, -35.2134, -44.5293, -51.9116
0.1049, -0.0147, -0.8718, -29.9695, -39.5902, -35.8140
0.1796, 0.1053, -1.0610, -13.0793, -23.3098, -8.8018
0.0792, -0.0661, -0.9675, 8.2622, -11.5415, 16.0762
0.0727, -0.3189, -0.9324, 21.2500, -13.9195, 29.0030
-0.0631, -0.5056, -0.9788, 27.1037, -20.3220, 26.4421
-0.0580, -0.6906, -0.8984, 24.8476, 8.4585, 23.4543
0.0131, -0.9423, -0.7823, 13.9939, 13.5195, 9.7348
-0.0255, -1.0446, -0.6505, 0.8232, -2.7610, -14.2896
0.0293, -0.7311, -0.7050, -12.4085, -1.2976, -30.9360
0.0596, -0.5487, -0.7053, -27.7744, -21.6634, -46.3018
0.0281, -0.1948, -0.8606, -28.9329, -30.2000, -42.3384
0.0953, 0.0439, -1.0143, -22.4695, -14.3463, -22.9482
0.1576, 0.0892, -1.1566, 4.3598, 9.5561, 8.9421
0.0757, -0.2184, -0.9520, 21.1280, 8.7634, 24.9177
0.0265, -0.3975, -0.9515, 27.3476, 2.9707, 31.0762
-0.0204, -0.6151, -0.8631, 23.8110, 12.9707, 24.6128
0.0218, -0.9083, -0.7736, 17.1037, 27.1171, 20.1616
-0.0017, -1.0838, -0.6285, 10.8841, 12.9707, -5.8750
0.0083, -0.8353, -0.5929, -6.9207, 4.6780, -34.4116
0.0677, -0.5941, -0.6609, -22.4085, 1.6902, -48.4360
0.1595, -0.2362, -0.8478, -27.3476, -19.2244, -43.9238
0.1286, 0.0342, -0.9666, -21.6159, -12.5171, -22.2165
0.1719, 0.0902, -1.0583, -6.6159, -0.9317, 3.8811
0.1271, -0.1331, -0.9474, 10.0915, 7.4829, 26.3201
0.1020, -0.3715, -0.9514, 21.3720, -2.3341, 40.5274
-0.0717, -0.6092, -0.9174, 22.6524, 3.5195, 31.7470
-0.0352, -0.8833, -0.8040, 14.6646, 24.3732, 22.2957
0.0359, -1.0598, -0.7116, 9.9695, 30.7756, 3.0274
0.0863, -0.8588, -0.6250, -1.6159, 22.1780, -27.7652
0.1313, -0.6110, -0.6586, -12.1037, 2.1780, -45.5701
0.1219, -0.4151, -0.7139, -20.5183, -18.6756, -47.9482
0.0841, -0.1172, -0.8677, -17.7134, -25.3829, -29.5335
0.1117, 0.0907, -1.0128, -8.4451, -15.5659, -9.6555
0.1461, -0.0639, -1.0822, 9.7866, -4.7122, 14.1860
0.0842, -0.2857, -0.9835, 21.9207, -9.5293, 27.9665
-0.0065, -0.4852, -0.9861, 27.1037, -1.1146, 32.1738
-0.0347, -0.7562, -0.9185, 21.9207, 19.1902, 21.8689
0.0123, -1.0506, -0.7864, 17.3476, 34.1902, 7.2957
0.0354, -0.9658, -0.6422, 3.3841, 26.6293, -23.0701
0.1969, -0.6997, -0.6221, -9.9085, 28.0927, -30.2652
0.1983, -0.5031, -0.6177, -20.3963, 0.2878, -43.3750
0.1749, -0.1486, -0.7721, -23.8110, -7.7000, -27.7043
0.1820, 0.0628, -0.9101, -17.6524, 0.5317, -7.2165
0.2184, -0.0241, -0.9615, -2.5915, 7.3610, 16.2591
0.1663, -0.2478, -0.8883, 9.4207, -2.6390, 29.6128
0.0643, -0.4024, -0.9122, 14.6646, -9.5902, 33.3933
0.0328, -0.5770, -0.9299, 17.0427, 15.0439, 28.1494
0.1634, -0.8405, -0.8232, 9.5427, 39.7390, 26.3201
0.1711, -1.0416, -0.7480, 9.6037, 30.2268, 9.4299
0.0801, -0.9193, -0.6330, 2.8963, 11.9341, -25.5091
0.1317, -0.6976, -0.6711, -6.5549, 24.8000, -36.1799
0.2418, -0.5099, -0.6730, -12.0427, 16.3854, -44.4726
0.2557, -0.3126, -0.7480, -16.5549, -1.8463, -38.6189
0.1934, -0.0395, -0.8281, -14.4207, -9.5902, -23.9848
0.1932, 0.0632, -0.9183, -5.4573, -0.6268, -1.7287
0.2356, -0.1233, -0.8846, 4.0549, 4.8610, 19.6128
0.1861, -0.3199, -0.8607, 8.0793, -4.1634, 35.2835
0.1437, -0.4788, -1.0090, 10.8232, 4.0073, 37.0518
0.1121, -0.8274, -0.9164, 13.3232, 8.8854, 27.3567
0.1198, -1.1253, -0.7148, 15.8841, 15.6537, 11.5030
0.1786, -0.9538, -0.5968, 7.0427, 14.4341, -20.9360
0.2692, -0.7094, -0.5982, -6.3110, 8.1537, -31.4848
0.2810, -0.3914, -0.6337, -20.3354, -25.9927, -40.2652
0.2112, -0.0423, -0.7578, -25.7622, -38.8585, -18.5579
0.1949, 0.1711, -0.9920, -16.3110, -31.4195, 1.4421
0.1907, -0.0426, -1.0286, 5.8232, -20.9317, 26.8079
0.1471, -0.2850, -0.9797, 22.1037, -17.9439, 39.7957
0.0231, -0.5457, -0.9874, 32.2256, -2.2732, 33.7591
0.0465, -0.9008, -0.8830, 27.8963, 21.3244, 25.2226
0.1061, -1.2437, -0.6867, 24.4817, 27.6049, 3.6982
0.0933, -1.0410, -0.5760, 3.4451, 17.6049, -35.9969
0.1814, -0.7050, -0.6666, -15.0915, 14.3122, -48.2530
0.2641, -0.4188, -0.6344, -30.0915, -14.1634, -49.5945
0.1879, 0.0423, -0.8198, -35.1524, -34.7122, -28.4360
0.1827, 0.2886, -0.9452, -24.3598, -13.9805, -0.4482
0.2961, 0.1162, -1.0363, 2.8354, 8.4585, 32.4787
0.2849, -0.2428, -0.8174, 22.4085, 1.2024, 55.8933
0.2139, -0.4877, -0.8089, 27.5305, -37.2122, 57.4787
-0.0043, -0.8952, -0.7475, 16.0671, -51.7244, 39.3689
-0.1976, -1.2332, -0.8040, 9.2988, -40.0780, 7.1128
-0.2172, -1.1052, -0.7453, -1.1280, -8.6146, -29.1677
0.0101, -0.8357, -0.8213, -13.8110, 22.9098, -51.5457
0.1509, -0.5603, -0.8871, -17.8963, 10.2878, -64.4726
0.1700, -0.1900, -0.8541, -15.0915, 10.0439, -56.6067
0.3284, -0.0033, -0.7536, -13.8110, 9.8000, -28.4970
0.3764, 0.0564, -0.8434, -7.1037, 6.8122, 1.1982
0.3152, -0.0136, -0.7877, -0.8232, -2.2122, 26.6860
0.2671, -0.2140, -0.8685, 7.1646, -12.2122, 52.1738
0.0561, -0.4589, -0.8978, 12.5305, -43.3098, 49.3689
-0.1076, -0.7089, -0.8854, 12.3476, -22.0293, 38.0884
-0.0961, -1.0354, -0.7685, 12.0427, -4.8341, 25.3445
-0.1159, -1.1266, -0.7405, 8.8110, 1.2024, -10.8140
0.0436, -0.8085, -0.7001, -5.1524, 1.2024, -34.6555
0.1254, -0.5022, -0.7578, -11.8598, -8.3707, -48.8628
0.2021, -0.2409, -0.7988, -16.3720, -26.9683, -37.5823
0.1714, 0.0536, -0.8588, -10.9451, -20.5049, -14.1677
0.2182, 0.1076, -0.9665, 1.3110, -5.2000, 14.5518
0.2234, -0.1740, -0.9047, 14.1159, -2.5780, 38.2713
0.1287, -0.3446, -0.9015, 23.3841, -11.0537, 49.1860
-0.0352, -0.6510, -0.8773, 20.0305, -13.1268, 37.0518
-0.1132, -1.0826, -0.8038, 14.8476, -10.4439, 26.7470
-0.2397, -1.1361, -0.7281, 5.8232, -10.5659, -15.9360
-0.0098, -0.8053, -0.7346, -8.8720, 19.9220, -28.6799
0.1680, -0.6108, -0.8111, -20.3963, -2.2122, -37.7043
0.0279, -0.3453, -0.8036, -29.2378, -23.3098, -42.2165
-0.0272, -0.0756, -0.9441, -24.6037, -6.3585, -29.1067
0.1565, 0.0419, -1.0321, -9.1159, 34.3732, 4.7957
0.2008, -0.1848, -0.8758, 0.5183, 32.4220, 16.9299
0.1204, -0.4027, -0.9566, 4.7866, 10.0439, 27.1128
-0.0354, -0.5452, -1.0229, 8.4451, 9.6780, 23.3323
-0.0609, -0.6939, -0.9467, 6.7378, 38.3366, 13.5762
0.0763, -0.9800, -0.8088, 2.9573, 41.2024, 6.2591
0.0323, -0.9798, -0.6603, -4.4817, 21.0805, -24.8384
0.0986, -0.6468, -0.6522, -19.6646, 15.6537, -37.5823
0.2092, -0.3471, -0.6684, -31.9817, 8.4585, -38.8628
0.2595, -0.1265, -0.6692, -43.2012, -1.9073, -27.0945
0.2596, 0.1088, -0.9363, -31.6768, -0.9317, -4.8994
0.3262, 0.1332, -0.8903, -11.5549, 12.4220, 25.6494
0.3620, -0.1806, -0.8219, 3.0793, -3.1268, 48.2713
0.1511, -0.4394, -0.7736, 5.6402, -39.0415, 50.0396
-0.0578, -0.7567, -0.8089, 3.9939, -34.4073, 41.1982
-0.1762, -1.0448, -0.7543, 10.2744, -16.9073, 13.2104
-0.0537, -0.8050, -0.8175, 4.3598, 0.5927, -16.4238
0.1634, -0.6699, -0.7028, -7.0427, -4.5293, -30.9360
0.2189, -0.5604, -0.7091, -14.1159, -40.8707, -41.3628
-0.0374, -0.4083, -0.8352, -20.6402, -74.8951, -53.4969
-0.0910, -0.0183, -1.0226, -12.1037, -47.7000, -40.6921
0.1230, 0.0866, -1.0508, 0.8232, -10.1390, -16.0579
0.2756, -0.0297, -1.0355, 13.6890, 3.6415, 14.7957
0.1821, -0.2410, -0.9883, 16.8598, -11.2976, 31.9909
0.0140, -0.3919, -1.0146, 21.7378, -26.3585, 41.0762
-0.2293, -0.6102, -0.9451, 13.6280, -10.2000, 23.2713
-0.1808, -0.8043, -0.9874, 7.5305, 17.1780, 18.4543
-0.1000, -0.8986, -0.9003, 9.1768, 26.3244, -1.9726
-0.0042, -0.6947, -0.7960, 6.9817, 20.0439, -24.2287
0.0452, -0.4865, -0.7904, -5.2134, 8.6415, -32.5823
0.0587, -0.1460, -0.8013, -13.6890, 12.9098, -22.8262
0.1528, 0.0457, -0.9443, -11.6159, 33.0927, 4.8567
0.2228, -0.1001, -0.9499, -7.7744, 33.2146, 19.0030
0.1298, -0.2495, -0.9818, 4.3598, 27.3000, 34.6738
-0.0552, -0.4506, -1.0786, 18.0793, 27.0561, 29.4299
-0.0056, -0.8037, -0.9107, 24.5427, 36.3854, 24.3689
-0.0625, -1.0567, -0.7585, 24.8476, 31.8122, -4.8384
-0.2056, -0.9047, -0.5981, 11.6159, 54.9220, -42.2774
0.0674, -0.6796, -0.6178, -12.6524, 92.2390, -54.4726
0.4341, -0.3075, -0.7503, -34.7256, 51.9951, -52.5213
0.4786, 0.1221, -0.8839, -31.3720, 24.0073, -33.4969
0.3709, 0.1072, -1.0732, -13.4451, 11.8732, -9.5945
0.1965, -0.1237, -1.0205, 12.9573, 26.7512, 18.6372
0.1943, -0.3223, -0.8645, 25.9451, 46.0195, 27.6006
0.2519, -0.6806, -0.6340, 26.9817, 42.1171, 20.2226
0.3084, -0.9813, -0.4849, 23.0793, 27.5439, 4.5518
0.2471, -0.9184, -0.3339, 3.3232, 6.2634, -26.1799
0.3583, -0.6646, -0.5112, -22.5305, -2.8220, -38.0701
0.4363, -0.3187, -0.7491, -42.4695, -35.0171, -43.3750
0.2904, 0.1374, -1.0906, -42.7134, -43.3707, -27.1555
0.2010, 0.1628, -1.2336, -33.0793, -8.2488, -1.5457
0.2492, -0.0782, -1.2165, -12.7134, 20.5927, 29.5518
0.2694, -0.2967, -1.0167, -3.0183, 40.7146, 38.5762
0.2111, -0.5830, -0.8753, -12.4085, 42.4829, 35.7713
0.1517, -0.8906, -0.7934, -16.7378, 42.9098, 19.6128
0.2050, -0.8667, -0.6584, -28.3232, 43.5195, -10.3262
0.4335, -0.5875, -0.6084, -42.1037, 51.4463, -18.9238
0.5646, -0.3828, -0.7481, -55.6402, 27.6049, -19.9604
0.4471, -0.1625, -0.8074, -61.9817, -1.7244, -17.0335
0.2590, -0.0593, -0.9275, -54.8476, 0.3488, -10.3872
0.2612, 0.0272, -0.9241, -38.4451, 24.7390, 11.1372
0.3736, -0.0126, -0.8475, -25.2134, 35.3488, 19.7348
0.4045, -0.2097, -0.7714, -14.1768, 31.6902, 22.6616
0.3870, -0.4250, -0.7122, -5.4573, 26.8732, 14.3689
0.4385, -0.6202, -0.6458, 5.9451, 26.3244, 2.8445
0.5430, -0.4942, -0.6753, 4.9695, 14.3732, -12.5823
0.5528, -0.4868, -0.6074, -0.8232, -3.3098, -17.7652
0.5092, -0.3797, -0.6744, -13.1402, -34.7122, -23.9848
0.3018, -0.0064, -0.9122, -18.6280, -46.1756, -28.8018
0.2981, 0.1678, -1.1635, -4.4207, -7.9439, -9.0457
0.3859, 0.0661, -1.0671, 16.4939, 26.6293, 13.6982
0.4880, -0.1197, -0.9195, 30.1524, 24.8000, 29.0030
0.3761, -0.3551, -0.7789, 35.2134, 11.8732, 23.8201
0.3834, -0.5407, -0.6537, 27.9573, 23.3366, 6.6860
0.4653, -0.7049, -0.5729, 13.3232, 19.5561, -5.3872
0.5906, -0.6160, -0.6050, -5.6402, -0.9927, -20.8140
0.5712, -0.4096, -0.7357, -22.2256, -34.7122, -26.4848
0.3799, -0.0951, -0.9235, -24.2378, -51.3585, -26.4238
0.2416, 0.0579, -1.0294, -15.0305, -26.3585, -18.4970
0.3068, 0.1473, -1.0975, 6.2500, 11.5683, 5.7713
0.4220, 0.0037, -0.9282, 22.2256, 32.1171, 25.5274
0.5415, -0.1862, -0.8551, 31.0671, 23.4585, 37.8445
0.3246, -0.5311, -0.6097, 24.1768, -1.8463, 19.2470
0.3750, -0.7950, -0.6111, 16.3720, 11.2634, 11.6860
0.4696, -0.7683, -0.5430, -0.3963, 9.6171, -17.0945
0.5713, -0.5078, -0.7030, -15.2744, -13.9195, -28.3140
0.4592, -0.2056, -0.8260, -20.0915, -44.1024, -33.3140
0.2848, 0.0616, -1.0195, -15.5183, -43.8585, -24.7165
0.2400, 0.2501, -1.0802, -2.7744, -12.0293, -1.5457
0.3329, 0.0938, -0.9763, 8.5671, 17.9098, 22.4787
0.4399, -0.1182, -0.9249, 20.5183, 16.6902, 37.3567
0.4005, -0.4111, -0.7664, 16.6768, 14.6780, 35.8933
0.4469, -0.7202, -0.6780, 7.7134, 21.2634, 23.8811
0.4224, -0.8845, -0.6051, 1.2500, -1.3585, -0.7530
0.4643, -0.6190, -0.6713, -5.2134, -13.0049, -21.1799
0.4167, -0.3792, -0.7679, -5.8232, -29.2244, -36.4848
0.3252, -0.0814, -0.9008, -5.3354, -27.1512, -31.4238
0.3309, 0.1587, -0.9617, 0.8232, -6.2366, -14.2896
0.3881, 0.1818, -0.9777, 8.6890, 11.2634, 11.9909
0.4394, -0.0083, -0.9393, 16.0061, 7.3610, 30.1616
0.3528, -0.2390, -0.8506, 21.7378, -7.6390, 34.4299
0.2564, -0.5271, -0.8094, 20.9451, -3.8585, 26.8079
0.3629, -0.8836, -0.6572, 25.2744, 12.0561, 18.8201
0.4125, -0.9160, -0.5680, 14.8476, -0.1390, -20.1433
0.5068, -0.5860, -0.5768, 4.5427, -14.4073, -31.9116
0.4446, -0.2889, -0.8173, -5.3963, -43.7366, -38.2530
0.2916, 0.0422, -0.9863, -6.1890, -46.4805, -26.3018
0.2457, 0.1507, -1.0641, -1.5549, -20.3829, -8.5579
0.2819, 0.0113, -0.9972, 6.3110, 9.3732, 18.2104
0.3664, -0.1515, -0.8987, 13.7500, 2.9098, 32.4787
0.3021, -0.3568, -0.8467, 15.9451, -3.6756, 31.0152
0.2852, -0.6222, -0.8040, 12.3476, 3.9463, 27.3567
0.3813, -0.8725, -0.6770, 11.1280, 8.8854, 16.5640
0.3844, -0.8060, -0.6365, -0.5183, -4.5902, -14.1677
0.4225, -0.5599, -0.6249, -12.2256, -20.7488, -25.6921
0.3474, -0.3864, -0.7957, -11.4329, -50.5049, -36.3018
0.1593, -0.1382, -0.9252, -10.2744, -53.8585, -37.2774
0.1363, 0.1287, -1.0708, 2.0427, -16.8463, -23.6189
0.3094, 0.1192, -1.1091, 15.8841, 26.9951, 9.3689
0.4319, -0.0665, -0.9013, 16.3110, 18.7024, 32.2348
0.3420, -0.2561, -0.9288, 15.3963, -13.5537, 39.0640
0.2213, -0.4634, -0.8583, 11.3110, -4.5902, 35.1006
0.2549, -0.7111, -0.8358, 8.0793, 14.8000, 34.0640
0.2505, -0.9373, -0.7015, 6.0061, 16.6902, 10.9543
0.2798, -0.8233, -0.6506, -6.0061, 12.4829, -20.8140
0.3790, -0.6333, -0.5682, -18.8720, 9.3122, -33.0701
0.4050, -0.3365, -0.8040, -22.1646, -21.7244, -41.1189
0.2851, -0.0800, -0.8776, -15.8232, -25.2610, -37.0335
0.2643, 0.0452, -0.9134, -5.6402, -11.7854, -18.5579
0.3346, 0.1549, -0.9976, 7.5915, 12.0561, 12.1128
0.4281, -0.0133, -0.8685, 9.8476, 3.8244, 31.7470
0.3573, -0.2019, -0.8339, 11.9207, -26.1756, 42.7835
0.2112, -0.3914, -0.9369, 11.4939, -23.8585, 42.4787
0.2436, -0.6281, -0.9142, 6.0671, 8.8854, 40.8323
0.2812, -0.8864, -0.7822, 2.1037, 15.4707, 23.0274
0.3087, -0.8493, -0.7165, -5.2744, 4.1293, -5.8750
0.3591, -0.6123, -0.7013, -17.0427, -12.2122, -18.7409
0.3015, -0.3335, -0.8011, -20.0915, -30.0780, -27.5213
0.1971, -0.1572, -0.7954, -15.0305, -27.3951, -21.9116
0.2417, -0.0109, -0.8289, -8.4451, -19.2854, -6.5457
0.3064, 0.1588, -0.9456, 3.2012, -9.3463, 18.9421
0.3043, 0.0680, -0.9249, 11.3720, -5.3829, 41.9909
0.2785, -0.1387, -0.9810, 17.0427, -28.9195, 55.8933
0.0675, -0.3554, -1.0053, 20.7622, -39.7122, 52.4787
0.0164, -0.6555, -0.9421, 16.0061, -9.2244, 44.2470
0.0638, -0.9871, -0.8243, 11.0061, 5.1049, 22.9665
0.0551, -1.0147, -0.7609, -0.3354, 7.8488, -13.8018
0.2389, -0.7534, -0.7357, -10.9451, 23.7634, -25.3872
0.3031, -0.4945, -0.8492, -19.4207, -13.6756, -47.2165
0.1791, -0.2150, -0.8307, -18.2012, -25.7488, -47.3384
0.2099, -0.0088, -0.8864, -11.0061, -12.7610, -33.7409
0.2604, 0.0902, -0.9871, 2.0427, 3.2146, -11.4848
0.2396, 0.0571, -0.8888, 11.9817, 8.1537, 12.6616
0.2640, -0.1104, -0.8311, 13.0183, 1.0805, 31.3201
0.1432, -0.3132, -0.9406, 11.9817, -26.1146, 37.7835
0.0996, -0.4848, -0.9936, 15.0915, -2.0293, 40.3445
0.1720, -0.7625, -0.9303, 8.9329, 6.3244, 30.2835
0.0967, -1.0466, -0.8212, 7.2256, 1.7512, 5.1006
0.1268, -0.8568, -0.7851, -5.2744, 5.0439, -27.6433
0.1879, -0.6182, -0.6775, -15.9451, 8.8854, -39.5945
0.1795, -0.3239, -0.8261, -19.3598, -7.0293, -50.0213
0.1720, -0.0375, -0.8945, -9.6646, -5.8707, -37.7652
0.2111, 0.0771, -0.8794, -0.7012, 4.6780, -19.0457
0.3038, 0.1327, -0.8994, 8.7500, 8.2756, 10.5884
0.3130, -0.0609, -0.8383, 8.6890, -7.0902, 28.5762
0.3046, -0.2829, -0.8949, 10.4573, -28.1268, 44.9787
0.1380, -0.5264, -0.9813, 13.1402, -27.5171, 37.1738
0.0551, -0.8034, -0.9474, 14.2988, -9.1634, 28.9421
0.0077, -0.9229, -0.8945, 13.2012, 3.9463, 5.9543
0.0425, -0.7125, -0.8945, 3.6280, 17.4220, -20.9970
0.1152, -0.4550, -0.8357, -11.3110, 29.3732, -27.3384
0.2295, -0.2324, -0.8035, -23.6280, 28.7024, -22.4604
0.3322, -0.0610, -0.8270, -30.9451, 10.7146, -6.3018
0.2797, -0.0886, -0.8480, -30.3354, -13.4317, 8.4543
0.1919, -0.1937, -1.0100, -23.0183, -36.4805, 5.2835
0.0737, -0.3460, -1.0442, 5.8841, 7.2390, 14.9177
0.1547, -0.5446, -0.9912, 21.3720, 38.5195, 11.3201
0.2310, -0.6509, -0.8154, 23.6890, 58.7634, 4.9177
0.4885, -0.4959, -0.9167, 21.5549, 27.9098, -0.9970
0.0550, -0.5167, -0.5464, 12.4695, -16.9683, -20.2652
-0.0264, -0.3947, -0.6371, -14.6646, -13.0659, -28.8018
0.2185, -0.1923, -0.7220, -33.8720, 21.6902, -16.6067
0.4483, -0.0299, -1.0238, -28.8110, 1.0805, -8.5579
0.3336, -0.2661, -0.8497, -2.8963, -14.6512, 6.1982
0.2910, -0.4169, -1.0187, 24.7256, -4.2244, 19.5518
0.1623, -0.5151, -0.8486, 30.0305, 24.9220, 13.2713
0.2236, -0.5731, -0.7346, 18.0183, 27.9707, 7.6006
0.3046, -0.4574, -0.9712, 13.8110, -14.4073, -12.0945
-0.0197, -0.4378, -0.6962, -16.8598, -33.7366, -32.4604
0.2593, -0.2749, -0.8065, -29.7256, 1.2634, -14.2287
0.4308, -0.1124, -1.1583, -27.3476, -29.7732, -10.6311
0.2334, -0.3242, -0.7772, -15.5183, -57.0902, -10.0213
0.1107, -0.3762, -0.9857, 23.0183, 7.4829, 16.7470
0.1470, -0.4812, -0.7557, 27.5305, 59.2512, 19.3079
0.1731, -0.5298, -0.6425, 22.2256, 49.4341, 18.1494
0.2005, -0.5418, -0.5305, 8.2622, -3.1268, 0.3445
0.0984, -0.4743, -0.7544, -24.1159, -29.8341, -28.8018
0.3665, -0.2897, -0.8663, -32.8354, -14.7122, -12.7043
0.4358, -0.1739, -1.0657, -24.2988, -61.7244, -12.0945
0.0759, -0.2949, -1.0934, -10.9451, -62.3951, -16.7896
0.0799, -0.3595, -0.9824, 21.2500, 40.8366, 10.7713
0.3895, -0.3722, -0.8429, 27.2256, 74.8000, 26.0762
0.1891, -0.4996, -0.5278, 10.7622, 17.1171, -0.4482
0.0906, -0.5416, -0.4599, 1.9817, -23.9195, 1.1982
0.0824, -0.4197, -0.7250, -29.3598, -29.7122, -17.8872
0.3470, -0.3054, -0.8763, -39.7866, -7.4561, -5.1433
0.4349, -0.2263, -0.9977, -26.7378, -51.3585, -0.2652
0.2358, -0.1945, -1.4515, -2.2866, -19.5902, 2.2348
0.1313, -0.3148, -0.9852, 27.0427, 46.9341, 11.5030
0.2954, -0.3794, -0.9717, 32.7134, 54.1293, 20.7104
0.2344, -0.4068, -0.7850, 26.4329, 15.8976, -0.9970
-0.0878, -0.5101, -0.4548, 4.9695, -7.5171, -19.5945
0.3127, -0.4334, -0.6550, -26.3720, 3.8854, -12.8872
0.5275, -0.2764, -0.8120, -35.8841, -22.4561, -6.2409
0.4177, -0.2486, -0.9774, -22.8963, -71.7854, 0.6494
0.1276, -0.2075, -1.3947, 6.4329, -20.7488, 1.8689
0.1614, -0.3523, -0.8738, 27.5305, 59.9220, 15.6494
0.2428, -0.4051, -0.7761, 30.1524, 54.5561, 22.8445
0.2287, -0.5368, -0.4386, 14.7256, -3.1268, 10.2835
0.0005, -0.4729, -0.7014, -16.9817, -35.4439, -19.1677
0.3335, -0.3259, -0.8896, -27.5915, -16.1756, -8.7409
0.3074, -0.3143, -0.7447, -24.1768, -51.7244, -4.1067
-0.0283, -0.2784, -1.0214, -10.9451, -48.6756, -7.0945
0.0124, -0.2735, -1.0518, 26.3110, 41.2634, 12.0518
0.3288, -0.3560, -0.9636, 31.3110, 60.7756, 22.2957
0.3728, -0.3717, -0.9972, 21.8598, 6.8122, -0.5701
0.0251, -0.5250, -0.4406, 1.9207, -35.9927, -8.1311
0.1643, -0.3685, -0.8370, -22.1037, -27.5780, -9.3506
0.3941, -0.2100, -1.1168, -14.6646, -34.7732, -1.6067
0.1678, -0.3554, -0.7833, -28.9329, -99.1634, -13.3750
-0.0516, -0.1782, -1.3503, 3.8110, -11.9683, 1.5030
0.1517, -0.2909, -0.9844, 28.6280, 74.3732, 20.5884
0.2649, -0.4125, -0.7806, 27.7744, 47.3610, 25.8933
0.2361, -0.4780, -0.7950, 11.0061, -7.7610, 8.4543
0.0076, -0.4925, -0.7662, -16.9207, -33.3707, -14.6555
0.2864, -0.3427, -0.9363, -24.2378, -26.2976, -0.5701
0.3078, -0.2775, -0.9502, -19.1159, -68.0049, -8.8018
-0.1083, -0.2503, -1.2975, -3.5671, -53.7366, -12.1555
-0.0589, -0.2960, -0.9853, 23.6890, 54.9829, 8.7591
0.2455, -0.3728, -0.8450, 27.5305, 86.3244, 24.4299
0.3189, -0.4038, -0.8521, 12.0427, 28.8244, 4.1250
0.0065, -0.5153, -0.5312, -6.3720, -22.8220, -10.6311
0.1636, -0.3962, -0.8259, -22.8354, -25.2000, -4.8384
0.2095, -0.2211, -1.0642, -16.6768, -39.0415, -7.2774
0.1257, -0.3654, -0.7955, -14.3598, -54.4683, -7.3384
-0.0690, -0.2258, -1.2590, 17.5915, 36.0195, 5.9543
0.2385, -0.3645, -0.8851, 28.3232, 106.9341, 24.9177
0.1242, -0.4272, -0.6793, 26.6768, 62.6659, 14.3689
-0.0286, -0.5573, -0.4351, 15.3354, -1.2366, -2.3994
0.0051, -0.5700, -0.5395, -20.5183, -9.6512, -17.8262
0.3386, -0.2644, -0.9883, -29.6646, 0.5927, -4.9604
0.3528, -0.2512, -1.1105, -30.5183, -79.5902, -27.6433
-0.0822, -0.1935, -1.3176, -2.7134, -19.8341, -17.0335
0.1548, -0.2575, -1.1002, 32.4695, 93.1537, 14.9177
0.3769, -0.4097, -0.8232, 37.3476, 93.5805, 25.4665
0.4110, -0.4026, -0.8593, 27.0427, 37.4829, 14.0640
0.0900, -0.5471, -0.5002, 6.9817, -13.3098, -3.5579
0.1341, -0.4768, -0.7121, -26.7988, -15.2610, -14.1067
0.3000, -0.3088, -0.7980, -33.8720, -14.1024, -9.6555
0.2301, -0.2483, -0.9961, -14.0549, -35.3829, -7.3384
0.1423, -0.1871, -1.3545, 23.2012, 28.0317, -2.5823
0.3029, -0.3690, -0.8611, 44.3598, 89.1902, 15.9543
0.2912, -0.5631, -0.5519, 30.7012, 56.6902, 11.8689
0.4308, -0.4693, -0.8069, 16.4329, 21.9341, 9.0640
0.1576, -0.5635, -0.5114, -18.9939, -32.4561, -17.3994
0.2233, -0.3879, -0.8027, -35.8841, -21.7854, -14.8384
0.3272, -0.2103, -1.0446, -31.5549, -52.5780, -17.7652
0.1424, -0.1437, -1.2817, 5.0305, -23.9195, -13.8628
0.2741, -0.3322, -0.9649, 39.7866, 50.4098, 14.0030
0.3999, -0.4778, -0.7034, 37.5305, 60.7756, 26.8689
0.2837, -0.5264, -0.6575, 18.8720, 30.5927, 7.1738
0.1755, -0.6363, -0.3065, -3.6890, -17.7000, -6.6677
0.1927, -0.4770, -0.7861, -30.0305, -26.8463, -17.8262
0.4359, -0.3281, -0.8221, -38.7500, -23.4927, -11.1799
0.4046, -0.1330, -1.2712, -16.3110, -67.9439, -7.2165
0.1545, -0.1406, -1.4246, 17.5305, -18.4317, -8.0091
0.1850, -0.3620, -0.9859, 47.6524, 71.0195, 14.2470
0.3484, -0.5432, -0.6451, 43.6890, 68.5805, 21.8689
0.3436, -0.5891, -0.4614, 13.7500, 27.4220, 5.0396
0.2020, -0.6358, -0.2395, -16.9817, -22.3951, -9.9604
0.2410, -0.4388, -0.7037, -43.4451, -31.5415, -12.0335
0.4015, -0.2985, -0.8731, -51.3110, -49.9561, -9.4726
0.2208, -0.2206, -1.0958, -28.8720, -59.6512, -7.9482
0.1930, -0.1760, -1.5011, 13.9939, 2.2390, 0.4055
0.3141, -0.3584, -1.0373, 48.1402, 57.7878, 13.2104
0.4621, -0.4614, -0.9141, 56.1890, 45.2878, 24.8567
0.1689, -0.5860, -0.5217, 36.0061, 11.0195, -1.3628
-0.0130, -0.7402, -0.0949, -2.9573, 0.2268, -16.0579
0.2167, -0.4973, -0.4810, -46.0061, -8.7366, -19.6555
0.4736, -0.2099, -0.8333, -61.3110, -43.4317, -16.9116
0.2868, -0.0585, -1.2155, -36.6768, -70.9317, -10.2043
0.1568, -0.1060, -1.4869, 7.2256, -32.6390, -7.8262
0.1793, -0.3145, -1.1075, 53.0183, 51.2634, 16.1982
0.3991, -0.4066, -1.0301, 64.4207, 69.9829, 32.6616
0.2817, -0.5503, -0.6990, 51.7988, 34.9829, 10.4665
0.0673, -0.7709, -0.1444, 3.8110, -20.2000, -18.7409
0.1268, -0.5675, -0.3991, -41.1890, -21.6024, -23.6799
0.5058, -0.3466, -0.7305, -64.9695, -29.8341, -12.3994
0.3041, -0.1652, -1.0776, -49.6646, -65.2610, -14.6555
0.2046, -0.0418, -1.7109, 5.3354, -31.4195, -11.5457
0.2819, -0.2976, -1.1349, 53.9939, 50.7756, 12.9665
0.3945, -0.4621, -0.8364, 55.2134, 66.2024, 26.8079
0.1807, -0.6302, -0.3328, 31.5549, 28.7024, 2.8445
0.1268, -0.7090, -0.1596, 1.1890, -6.5415, -6.1189
0.2568, -0.5258, -0.5154, -45.8841, -24.6512, -17.8872
0.4932, -0.3025, -0.7424, -58.5671, -48.1268, -8.8628
0.2852, -0.0572, -1.2834, -43.7500, -105.1390, -10.4482
0.0193, -0.1185, -1.3692, 0.2744, -53.4317, -9.2896
0.1431, -0.3193, -1.0623, 44.9695, 37.4220, 24.8567
0.3629, -0.4066, -0.7592, 50.5793, 55.6537, 33.6372
0.2036, -0.5614, -0.4960, 35.4573, 16.9341, 18.9421
0.1868, -0.7598, -0.1807, 2.9573, -22.0902, 10.9543
0.2232, -0.5796, -0.5775, -48.6280, -61.7244, -4.5945
0.2329, -0.3173, -0.8967, -62.8354, -74.8341, -7.6433
0.0806, -0.0990, -1.5158, -31.9817, -67.8829, -11.3018
-0.0648, -0.2067, -1.4287, 20.7012, 6.3854, -5.8140
0.1216, -0.3728, -1.0206, 56.4939, 61.9951, 15.7713
0.3373, -0.4497, -0.8989, 51.9207, 54.3732, 16.8079
0.1250, -0.5849, -0.4747, 25.5793, 10.1659, 0.4665
0.0735, -0.7078, -0.2561, -23.5671, -16.9683, -10.3872
0.2487, -0.4138, -0.6675, -55.4573, -30.5049, -9.8994
0.1787, -0.2069, -1.0660, -48.9329, -42.5171, -10.9970
0.0828, -0.1588, -1.3453, -7.5915, -15.4439, -2.7652
0.2015, -0.2492, -1.1833, 40.8841, 32.0561, 19.9177
0.2399, -0.3785, -0.9434, 54.6646, 39.3732, 26.5640
0.0663, -0.5649, -0.5395, 39.4817, 17.9707, 14.0030
0.0061, -0.7632, -0.2646, 3.2622, 1.9951, -2.9482
0.2335, -0.6277, -0.5257, -42.2866, -18.2488, -12.5213
0.3108, -0.3010, -0.8647, -49.7256, -34.9561, -11.1799
0.0941, -0.1129, -1.4209, -16.5549, -37.5780, -13.3750
0.1001, -0.2475, -1.2807, 27.9573, 9.3122, 0.4665
0.1505, -0.3985, -0.9241, 42.5305, 45.5317, 12.1128
0.2909, -0.5073, -0.7591, 36.5549, 48.5195, 16.3201
0.2040, -0.6201, -0.5367, 27.4695, 16.2634, 8.4543
0.0795, -0.7782, -0.4039, -3.8110, -15.3220, -13.0701
0.1271, -0.5358, -0.6422, -37.2866, -16.1756, -23.4360
0.3021, -0.2799, -0.8711, -46.5549, -30.2000, -19.9604
0.2685, -0.0480, -1.4034, -12.8354, -18.5537, -9.2896
0.2463, -0.2018, -1.2590, 24.9695, 1.6293, 4.6738
0.1471, -0.4007, -0.8704, 39.7256, 35.8976, 19.6128
0.2890, -0.4819, -0.8155, 35.6402, 43.2146, 26.9299
0.1194, -0.6021, -0.5929, 34.6646, 17.1780, 13.3323
-0.0109, -0.7953, -0.2571, 9.7256, -16.6024, -11.3018
0.1412, -0.6728, -0.4617, -36.2500, -15.8707, -26.1799
0.4596, -0.4052, -0.6215, -59.9085, -26.4805, -17.5213
0.2977, -0.0395, -1.4635, -43.8110, -79.7122, -17.8262
0.0179, -0.0723, -1.5653, 7.5305, -39.9561, -16.6677
0.0893, -0.3291, -1.1421, 60.2134, 46.5073, 17.5396
0.3306, -0.4845, -0.8592, 59.7256, 52.8488, 28.9421
0.2102, -0.6316, -0.5865, 37.1037, 13.7634, 14.5518
0.0643, -0.7773, -0.2924, 2.7134, -13.0049, -0.3872
0.0903, -0.6511, -0.5366, -42.4695, -28.9195, -18.5579
0.3077, -0.4447, -0.6530, -61.6159, -30.7488, -11.8506
0.1308, -0.1953, -1.0650, -59.5427, -69.4683, -15.3872
-0.0670, -0.2459, -1.0547, -25.9451, -26.7244, -11.2409
0.1738, -0.2177, -1.3237, 22.1037, 31.2024, 11.0762
0.2649, -0.3636, -0.9465, 43.2622, 42.1780, 19.6738
0.2394, -0.4640, -0.7930, 40.2744, 29.1293, 23.8811
0.0530, -0.5708, -0.5784, 26.4329, 6.5683, 11.6250
0.0916, -0.6127, -0.6487, 7.1646, 10.8366, 6.2591
0.2329, -0.5506, -0.6373, -18.8720, -0.6878, 2.2957
0.3046, -0.4075, -0.8207, -28.6280, -18.0049, 4.5518
0.1775, -0.3704, -0.9832, -20.8841, -36.6024, 5.3445
0.0372, -0.3481, -1.0982, -3.2622, -25.6878, 6.0762
-0.0133, -0.2899, -1.2120, 27.1037, 24.8000, 9.4909
0.1519, -0.3489, -1.1376, 58.5061, 59.8000, 16.2591
0.1658, -0.5377, -0.7521, 68.8110, 58.0317, 16.4421
0.1189, -0.7764, -0.3093, 44.6646, 31.2634, 6.1982
0.0577, -0.9765, 0.0017, -14.9085, -6.8463, -18.3140
0.2910, -0.5990, -0.4109, -66.9207, -10.2000, -18.7409
0.4149, -0.2650, -0.9023, -75.7622, -57.3341, -15.0213
-0.1154, -0.0890, -1.4304, -38.1402, -71.2366, -24.0457
-0.0305, -0.1093, -1.7316, 22.4085, 8.2756, -8.3140
0.2349, -0.3419, -1.0988, 65.7012, 76.0195, 16.6250
0.3630, -0.4917, -0.7595, 63.0183, 72.1171, 32.3567
0.2450, -0.6624, -0.4356, 37.0427, 27.6659, 19.6738
0.0580, -0.8186, -0.2014, -6.4329, -22.9439, -3.9238
0.1296, -0.6585, -0.4118, -55.8841, -23.9195, -16.0579
0.3653, -0.3716, -0.7674, -69.9695, -25.1390, -10.5091
0.1471, -0.2221, -1.0947, -54.9695, -71.4805, -16.6067
-0.0995, -0.2933, -1.1219, -15.3354, -29.9561, -12.1555
0.1576, -0.3107, -1.0826, 28.3232, 30.3488, 11.3811
0.2965, -0.4477, -0.8160, 35.4573, 27.9707, 17.0518
0.2722, -0.5404, -0.6903, 26.3110, 4.6780, 14.1250
0.1346, -0.5931, -0.6403, 6.9207, -18.3707, 1.7470
0.0943, -0.5950, -0.6921, -9.9695, -13.0049, -5.6921
0.1930, -0.4800, -0.8699, -15.3354, -5.2610, -4.4726
0.2074, -0.4274, -0.9474, -8.2012, -9.5902, -4.2287
0.1156, -0.4304, -0.9385, 1.6159, -10.8707, -3.7409
0.0727, -0.4732, -0.8701, 7.1646, -3.0659, -6.0579
0.1009, -0.4805, -0.8165, 7.1646, 9.2512, -7.8262
0.2001, -0.4708, -0.7816, 3.7500, 13.8854, -6.9116
0.2535, -0.4576, -0.8004, -0.4573, 2.4220, -5.1433
0.2060, -0.4670, -0.8213, -3.3841, -11.7244, -2.7652
0.1351, -0.4498, -0.8529, -4.2378, -12.3951, -2.0335
0.1131, -0.4303, -0.8779, -0.5183, -3.4927, -0.3872
0.1780, -0.4506, -0.8585, 2.4085, 3.9463, 2.1738
0.2422, -0.4536, -0.8634, 3.9939, 6.5683, 7.4177
0.2094, -0.4719, -0.9034, 5.5793, 0.4707, 9.7348
0.1684, -0.5370, -0.8994, 8.9939, -3.8585, 5.3445
0.1107, -0.6604, -0.8702, 9.9695, -5.1390, -4.7165
0.1024, -0.7216, -0.8115, 17.2256, 12.1780, -17.0945
0.0096, -0.6210, -0.5981, 10.7622, 19.9220, -35.0823
0.1352, -0.5020, -0.5868, -12.4085, 14.8000, -42.8262
0.3442, -0.1968, -0.7333, -34.2988, -3.0049, -29.2896
0.4129, -0.0526, -0.9551, -35.4573, -35.4439, -9.2287
0.1686, -0.0987, -1.1218, -13.7500, -69.8951, 2.2957
-0.0297, -0.2850, -1.2670, 21.7378, -28.5537, 18.8811
-0.1069, -0.5365, -0.9499, 37.3476, 25.8366, 17.9665
-0.0451, -0.6721, -0.7643, 34.7866, 84.1902, 10.0396
0.3282, -0.6656, -0.7074, 20.1524, 78.6415, 2.2957
0.2696, -0.6608, -0.4404, -5.0915, -2.4561, -20.6311
0.1568, -0.5431, -0.6337, -35.3354, -33.1268, -26.1799
0.3853, -0.3760, -0.7365, -45.0305, -21.6024, -7.0335
0.3787, -0.2202, -1.0563, -39.1159, -66.7854, -11.1799
0.0474, -0.2231, -1.1747, -5.2134, -34.2244, -4.6555
0.0831, -0.3407, -1.0627, 34.4817, 41.8732, 21.9299
0.2764, -0.4323, -0.8559, 45.1524, 67.4220, 28.5762
0.1754, -0.6574, -0.4083, 19.9085, 28.5805, 7.0518
0.2880, -0.5367, -0.8103, 12.1646, -1.4805, 4.3079
0.0982, -0.6275, -0.6222, -21.2500, -38.9805, -17.0945
0.2989, -0.5148, -0.6959, -39.9085, -21.0537, -7.9482
0.3545, -0.2853, -1.1066, -36.3720, -71.4195, -9.2287
0.1025, -0.3465, -1.0300, -18.5061, -82.0293, -13.3750
-0.0042, -0.3338, -1.1989, 16.9207, -4.5902, 8.2713
0.1248, -0.4403, -0.8896, 32.1646, 46.6902, 17.4787
0.1401, -0.6217, -0.6039, 26.7988, 20.7146, 8.7591
0.0577, -0.6555, -0.6025, 10.4573, 2.1171, -12.3384
0.1878, -0.4752, -0.7043, -6.9207, 12.7878, -16.1189
0.3921, -0.3165, -0.8771, -13.8720, -0.2610, -0.1433
0.2940, -0.1729, -0.9814, -9.6037, -35.3220, 14.1860
0.0694, -0.1279, -1.1070, 3.3232, -40.5049, 24.7957
-0.0651, -0.2485, -1.0569, 17.4695, -11.2976, 30.7104
-0.1286, -0.4844, -0.9808, 28.0793, 15.4707, 22.7226
0.0181, -0.6953, -0.7944, 34.4207, 61.9341, 21.9909
0.2027, -0.8993, -0.6494, 30.3354, 58.5195, 6.5030
0.2029, -1.0107, -0.4327, 11.3720, 28.6415, -19.4116
0.2370, -0.7680, -0.4990, -17.2866, 11.3854, -33.6799
0.3246, -0.3966, -0.7706, -31.6768, -16.3585, -38.3750
0.2298, -0.1242, -0.9545, -27.0427, -29.2854, -25.0213
0.1611, 0.0438, -1.1154, -1.9817, -5.0780, -2.8262
0.1743, -0.1398, -0.9277, 20.0305, 16.6293, 21.3201
0.2154, -0.3645, -0.7676, 25.6402, 9.9220, 33.0274
0.1996, -0.4870, -0.7973, 25.1524, -2.0902, 35.2835
0.0733, -0.7099, -0.6957, 19.9695, -3.3098, 24.4299
0.1759, -0.9220, -0.6237, 11.1890, 12.7268, 16.1372
0.0959, -0.9463, -0.5566, -9.1768, -7.2732, -16.6067
0.1445, -0.6425, -0.7599, -23.8110, 1.5683, -29.1067
0.2281, -0.4967, -0.8674, -25.7622, -11.1756, -33.3750
0.1422, -0.2897, -0.9955, -11.4329, -12.1512, -33.2530
0.1792, -0.2075, -0.9431, 1.7988, 6.1415, -19.6555
0.3025, -0.2304, -0.8658, 10.7622, 15.5317, -1.5457
0.2845, -0.3770, -0.7160, 7.5915, -1.7854, 8.8811
0.1842, -0.4599, -0.7444, 0.2744, -16.5415, 12.7226
0.1127, -0.5164, -0.8115, -4.1159, -15.9927, 10.2835
0.0855, -0.5308, -0.8667, -7.2256, -2.3951, 6.8079
0.1277, -0.5331, -0.8789, -9.6646, 9.5561, 4.3689
0.1834, -0.5113, -0.8887, -7.6524, 10.7146, 3.6982
0.2316, -0.5011, -0.8370, -5.7012, -0.1390, 2.0518
0.1773, -0.4683, -0.8236, -3.5671, -3.2488, 2.0518
0.1249, -0.4487, -0.8295, -0.8232, 8.4585, 2.7835
0.2152, -0.4664, -0.8057, 1.1280, 16.4463, 7.2348
0.2466, -0.4464, -0.7921, -1.1280, -0.7488, 7.2348
0.1743, -0.4599, -0.8042, -2.0427, -15.6878, 4.7348
0.1286, -0.4799, -0.8202, -1.1890, -10.6268, 5.5274
0.1517, -0.4809, -0.8331, 0.2134, -1.6024, 7.4787
0.1731, -0.5071, -0.8211, 0.0915, -0.5659, 6.6860
0.1726, -0.5191, -0.8299, -1.1890, -10.2000, 3.1494
0.1272, -0.5109, -0.8510, -1.1890, -11.9683, -1.7287
0.1274, -0.4883, -0.8513, -0.4573, -0.4439, -2.1555
0.1818, -0.4923, -0.8245, -0.7012, 3.3976, -2.8872
0.2097, -0.4851, -0.8136, -1.7378, -4.1634, -3.1921
0.1421, -0.4690, -0.8254, -2.2256, -11.2976, -4.9604
0.1290, -0.4567, -0.8461, -1.7988, -0.6268, -3.4970
0.1857, -0.4595, -0.8256, -1.8598, 3.7024, -0.0823
0.1950, -0.4566, -0.8224, -3.0793, -2.6390, 0.1006
0.1568, -0.4545, -0.8383, -3.6890, -8.8585, 0.1616
0.1370, -0.4428, -0.8605, -2.1646, -4.7732, 1.1982
0.1495, -0.4591, -0.8481, -0.5793, 0.0439, 2.9665
0.1818, -0.4622, -0.8283, -0.0305, -3.4317, 2.9055
0.1407, -0.4717, -0.8272, -1.1280, -8.1878, 2.0518
0.1094, -0.4681, -0.8337, -1.3110, -10.0780, 0.4665
0.1183, -0.4649, -0.8452, -1.4329, -6.9683, -0.2043
0.1368, -0.4646, -0.8413, -1.1280, -5.2000, -0.6921
0.1486, -0.4660, -0.8426, -1.2500, -6.7854, -0.8750
0.1418, -0.4652, -0.8441, -0.8841, -8.2488, -0.3872
0.1281, -0.4570, -0.8484, -0.6402, -6.2366, 0.7713
0.1320, -0.4561, -0.8160, -1.9817, -4.5293, 2.3567
0.1357, -0.4488, -0.8462, -3.1402, -6.4805, 1.6860
0.1203, -0.4512, -0.8520, -2.3476, -8.4317, 2.2348
0.1067, -0.4486, -0.8464, -2.3476, -8.8585, 3.2713
0.0998, -0.4564, -0.8416, -2.8354, -8.3707, 3.3933
0.0979, -0.4402, -0.8447, -2.2256, -9.1634, 4.1250
0.1022, -0.4410, -0.8497, -1.5549, -8.7366, 4.7348
0.1046, -0.4472, -0.8406, -1.9207, -11.1756, 6.0152
0.0738, -0.4518, -0.8631, -2.4085, -12.8829, 6.8689
0.0998, -0.4486, -0.8487, -2.2866, -10.8707, 7.3567
0.0948, -0.4472, -0.8405, -2.9573, -12.2732, 8.5762
