ax,ay,az,gx,gy,gz
-0.5761, -0.5303, -0.6578, -5.0305, -6.3585, -21.8506
-0.5642, -0.5252, -0.6683, -5.9451, -3.9805, -23.6799
-0.5289, -0.5203, -0.6885, -6.1280, -3.4927, -26.4848
-0.5009, -0.5207, -0.6774, -4.5427, -1.0537, -29.3506
-0.4693, -0.5317, -0.6744, -3.2012, -0.5659, -29.4726
-0.4519, -0.5424, -0.6687, -3.0183, -2.5780, -29.4116
-0.4669, -0.5201, -0.6863, -2.4695, -2.9439, -27.3994
-0.4891, -0.5156, -0.7056, -0.5183, 2.4829, -25.1433
-0.4953, -0.5329, -0.7046, -0.1524, 8.3366, -21.5457
-0.4526, -0.5258, -0.7005, -1.8598, 9.8000, -19.9604
-0.4260, -0.5352, -0.7047, -2.3476, 5.1659, -18.4360
-0.4250, -0.5365, -0.7054, -4.1159, 4.4951, -17.0945
-0.4154, -0.5348, -0.7031, -4.3598, 5.8366, -16.3628
-0.3883, -0.5418, -0.7014, -3.9939, 6.8122, -14.8384
-0.3911, -0.5551, -0.6946, -3.7500, 9.1902, -13.4360
-0.3929, -0.5501, -0.6856, -4.6646, 13.0317, -12.2774
-0.4006, -0.5512, -0.6952, -3.9329, 16.8122, -10.7530
-0.3859, -0.5559, -0.6810, -5.0305, 17.5439, -9.2896
-0.3780, -0.5435, -0.7013, -4.6646, 11.6902, -8.4970
-0.3823, -0.5448, -0.7140, -3.2012, 5.2268, -9.8994
-0.3883, -0.5636, -0.7104, -1.8598, 5.1659, -9.4116
-0.3677, -0.5686, -0.7090, -0.8841, 6.0805, -10.6311
-0.3714, -0.5646, -0.7322, 1.0061, 7.3610, -11.4848
-0.3847, -0.5773, -0.7279, 2.8354, 12.9707, -12.7043
-0.3490, -0.5819, -0.7174, 3.6280, 17.3610, -12.2774
-0.3237, -0.6090, -0.7080, 3.2622, 15.8366, -13.4360
-0.3207, -0.5970, -0.7250, 3.4451, 10.4098, -13.6799
-0.3432, -0.5980, -0.7244, 3.5061, 9.1293, -14.4726
-0.3164, -0.5893, -0.7327, 3.2012, 11.6902, -14.2287
-0.3407, -0.5996, -0.7296, 3.8110, 16.9951, -15.9360
-0.3543, -0.6241, -0.7563, 3.8720, 22.5439, -15.9360
-0.2941, -0.6370, -0.7819, 6.0671, 21.6293, -16.3628
-0.2890, -0.6286, -0.7731, 10.7622, 10.1049, -21.9726
-0.3574, -0.6568, -0.7587, 16.6768, 2.1780, -29.5945
-0.3547, -0.6793, -0.7992, 25.0305, -3.1268, -36.1799
-0.2989, -0.5801, -0.7495, 37.5915, 17.8488, -35.3262
-0.3559, -0.6065, -0.5967, 37.6524, 36.0195, -46.9726
-0.1220, -0.5498, -0.6605, 36.0671, 27.9707, -42.1555
0.1255, -0.5408, -0.5065, 34.9695, 14.1293, -21.0579
0.2535, -0.5139, -0.4378, 23.5671, 25.2878, 18.0274
0.2243, -0.6037, -0.4541, 2.3476, 41.1415, 54.7348
0.1103, -0.6358, -0.4717, -19.6646, 21.3854, 76.3201
-0.2039, -0.7159, -0.6324, -28.9329, -37.2732, 67.7835
-0.8558, -0.7693, -0.7556, -21.6768, -81.3585, 25.0396
-1.1331, -0.8317, -0.8119, -8.4451, -72.6390, -26.7287
-0.7345, -0.6924, -0.7683, 3.2622, 15.6537, -42.9482
-0.1430, -0.6584, -0.7349, 13.8110, 38.3976, -49.2896
0.1418, -0.5913, -0.6262, 17.9573, 16.0195, -36.7287
0.4511, -0.5128, -0.5951, 12.7744, 19.6171, 6.0152
0.2761, -0.6136, -0.5599, -4.9695, 31.1415, 43.6372
-0.0269, -0.6242, -0.6017, -22.5915, 19.9829, 59.1860
-0.2977, -0.6302, -0.8059, -28.4451, 7.7878, 64.0031
-0.8753, -0.6301, -0.7978, -10.7012, -65.0171, 20.0396
-1.2331, -0.7661, -0.7992, 4.9695, -56.6024, -39.5945
-0.6796, -0.7438, -0.7710, 8.3232, 48.7634, -49.5335
-0.0482, -0.6253, -0.7046, 15.3354, 58.7024, -58.9238
0.1901, -0.5690, -0.6024, 18.4451, 44.8610, -35.5701
0.3917, -0.5642, -0.5257, 6.5549, 30.0439, -8.0701
0.3269, -0.5772, -0.5404, -12.2866, 38.1537, 37.7835
0.0480, -0.5650, -0.5983, -28.2622, 23.0927, 51.8689
-0.1973, -0.6091, -0.7581, -33.8110, 5.4707, 62.8445
-0.7745, -0.7034, -0.8181, -17.3476, -66.4195, 27.2957
-1.2103, -0.7640, -0.8398, 2.5915, -72.6390, -39.2287
-0.8180, -0.7410, -0.6540, 3.8110, 34.3732, -51.6067
-0.1072, -0.6422, -0.7615, 9.9085, 47.3610, -60.6921
0.3556, -0.4791, -0.6374, 17.5305, 53.3366, -25.8140
0.5086, -0.4995, -0.5571, 8.5671, 26.2024, -2.5823
0.3565, -0.5931, -0.5443, -7.8354, 27.5439, 42.7226
0.1012, -0.5726, -0.5761, -23.8720, 28.5195, 65.0396
-0.0594, -0.6966, -0.7681, -31.6768, 9.3122, 77.4787
-0.8295, -0.6804, -0.8118, -16.8598, -66.4195, 36.0152
-1.3424, -0.7705, -0.9067, 9.4207, -97.0902, -39.9604
-0.9032, -0.7434, -0.7239, 15.7622, 20.8976, -59.4116
-0.0470, -0.6232, -0.6656, 20.1524, 64.2512, -68.6799
0.3380, -0.5191, -0.5944, 26.1280, 56.4463, -37.3384
0.5320, -0.5282, -0.5468, 16.9817, 13.6415, -12.6433
0.5105, -0.5825, -0.4885, -0.3354, 22.6049, 41.5031
0.2042, -0.5856, -0.5400, -21.0671, 15.7146, 66.7470
-0.1477, -0.6876, -0.7267, -27.8354, -10.8707, 79.4299
-0.7575, -0.7489, -0.7695, -16.9207, -88.2488, 39.0640
-1.3921, -0.7278, -0.8661, 2.2256, -109.4683, -43.1311
-0.9711, -0.6768, -0.7312, 8.2012, 23.0317, -55.3262
-0.0922, -0.6342, -0.7391, 13.0793, 57.5439, -67.3384
0.3863, -0.4525, -0.7465, 25.3963, 48.5805, -35.7530
0.5181, -0.5416, -0.5485, 17.1037, 10.8976, -10.6921
0.4270, -0.6113, -0.5272, 0.5793, 13.5195, 37.4177
0.1005, -0.6007, -0.5253, -20.5183, 12.9707, 61.2591
-0.1257, -0.6605, -0.7640, -29.5427, -13.1268, 71.5640
-0.8702, -0.7395, -0.7844, -17.3476, -85.4439, 28.8811
-1.3891, -0.7104, -0.9188, 6.4939, -104.0415, -47.5823
-1.0433, -0.7659, -0.7192, 11.7988, 21.9341, -69.7774
-0.0244, -0.6008, -0.7896, 24.4207, 59.3732, -71.0579
0.3792, -0.5055, -0.5579, 31.8598, 61.1415, -36.4848
0.6675, -0.4652, -0.5347, 20.1524, 14.6780, -4.6555
0.4418, -0.5922, -0.4313, 0.3963, 13.2146, 44.6128
0.1123, -0.5956, -0.4888, -24.3598, 8.3366, 71.2591
-0.1447, -0.6365, -0.7380, -31.3110, -15.1390, 82.6006
-0.7718, -0.7501, -0.8181, -20.2134, -76.1756, 40.8323
-1.4111, -0.7961, -0.9241, 3.8110, -111.1756, -35.2652
-1.1757, -0.7626, -0.7493, 16.1280, 18.1537, -61.8506
-0.1813, -0.6850, -0.7903, 24.9695, 56.8732, -85.6311
0.4054, -0.5085, -0.6396, 36.1280, 73.2146, -42.6433
0.6657, -0.4991, -0.5285, 23.2622, 33.5805, -15.9360
0.5360, -0.5858, -0.4244, -0.2744, 27.0561, 42.4787
0.1844, -0.5996, -0.4553, -24.6037, 16.6902, 65.8933
-0.0681, -0.5932, -0.6884, -33.4451, -9.6512, 84.0031
-0.7200, -0.7697, -0.7459, -25.0915, -78.4927, 48.4543
-1.4432, -0.8108, -0.8519, -2.6524, -120.2610, -31.7896
-1.2112, -0.7561, -0.7593, 8.4451, 10.1659, -59.6555
-0.2568, -0.6876, -0.7695, 15.5793, 61.8732, -81.1189
0.4321, -0.4627, -0.8079, 30.8841, 57.9098, -60.8140
0.5657, -0.5249, -0.5109, 21.1890, 29.9220, -29.1677
0.6276, -0.5645, -0.4203, -3.8110, 29.0073, 30.1006
0.2216, -0.6349, -0.4377, -27.2866, 18.7024, 57.4787
0.0135, -0.5601, -0.6537, -41.9817, 1.6902, 80.8323
-0.5432, -0.7138, -0.7276, -34.6037, -54.7732, 63.8811
-1.3081, -0.7323, -0.9370, -13.2622, -110.4439, -12.0945
-1.3215, -0.7575, -0.8329, 6.8598, -17.7000, -51.1799
-0.3885, -0.6403, -0.7653, 12.1037, 68.1537, -76.6677
0.3285, -0.5173, -0.8001, 24.1768, 52.4220, -72.5823
0.4274, -0.5569, -0.4900, 21.0671, 33.7634, -28.4970
0.6346, -0.5034, -0.4596, 2.6524, 21.4463, 16.9909
0.2374, -0.6434, -0.4640, -19.2988, 12.8488, 53.4543
0.0057, -0.5969, -0.6613, -33.2622, 3.5195, 74.7348
-0.4468, -0.6926, -0.7409, -27.3476, -45.9317, 57.4787
-1.1522, -0.7923, -0.9108, -6.7988, -102.5780, -7.1555
-1.2051, -0.7043, -0.8077, 12.7744, -25.8707, -50.4482
-0.5238, -0.7397, -0.7037, 16.3110, 50.8366, -78.3750
0.3300, -0.5448, -0.7166, 28.7500, 70.8366, -51.1799
0.5160, -0.5117, -0.5260, 21.7378, 43.0927, -18.8628
0.6617, -0.5643, -0.4546, -0.0305, 28.6415, 34.5518
0.2121, -0.6603, -0.4739, -23.7500, 9.1902, 59.6738
-0.0130, -0.6041, -0.6857, -34.5427, -6.8463, 79.9787
-0.5531, -0.7283, -0.7624, -25.9451, -55.9317, 60.7104
-1.2339, -0.7451, -0.9071, -5.0915, -102.4561, -10.9970
-1.2028, -0.7202, -0.8274, 11.3110, -19.4073, -50.2652
-0.4586, -0.7205, -0.6948, 12.8963, 50.7756, -72.9482
0.2714, -0.5226, -0.7705, 24.6646, 55.2268, -63.9238
0.4504, -0.5650, -0.5215, 18.9939, 38.5195, -23.6189
0.6450, -0.5579, -0.4717, -0.8841, 34.0683, 28.0884
0.2039, -0.6192, -0.5023, -19.9085, 13.1537, 51.4421
-0.0073, -0.6164, -0.6472, -33.1402, 3.5805, 74.7348
-0.4769, -0.6893, -0.7437, -26.4329, -51.1756, 57.2957
-1.1544, -0.6895, -0.8715, -8.8720, -98.6756, -6.3628
-1.2022, -0.6768, -0.8334, 7.8963, -31.8463, -47.8262
-0.5444, -0.6702, -0.7148, 9.8476, 57.1780, -68.8018
0.2024, -0.5993, -0.8179, 23.9329, 55.5927, -64.3506
0.4589, -0.5870, -0.5261, 25.5793, 50.3488, -20.8140
0.6591, -0.5852, -0.5203, 7.2866, 29.3732, 19.0030
0.2058, -0.7081, -0.5107, -14.4207, 13.7024, 42.5396
0.0394, -0.6724, -0.5549, -32.9573, 18.1537, 67.7226
-0.2449, -0.6772, -0.7332, -29.6646, -26.7244, 62.1128
-0.8512, -0.6847, -0.8714, -16.5549, -91.5415, 6.5640
-1.1953, -0.6784, -0.8520, 3.2622, -56.3585, -46.0579
-0.5894, -0.6243, -0.7444, 10.7012, 53.6415, -52.5213
0.0593, -0.6559, -0.6992, 19.7866, 43.2146, -55.8750
0.5787, -0.5061, -0.5202, 20.3963, 62.6659, -0.4482
0.6382, -0.6110, -0.5022, -0.7622, 21.0805, 24.9787
0.1177, -0.6816, -0.5431, -20.7012, -7.5780, 48.5152
-0.0019, -0.6582, -0.6285, -35.7012, -4.0415, 69.1250
-0.5219, -0.6752, -0.8360, -26.3110, -35.5049, 50.1006
-1.1616, -0.5754, -0.9867, -3.2012, -87.2732, -17.5213
-1.1484, -0.6715, -0.8049, 17.0427, -7.6390, -55.3872
-0.3280, -0.6644, -0.7547, 22.0427, 48.6415, -74.3506
0.4684, -0.5093, -0.6875, 32.2256, 67.7878, -33.8018
0.6562, -0.5574, -0.5540, 19.4207, 34.0683, -7.8872
0.4714, -0.6701, -0.5179, -2.2256, 18.2146, 39.5518
0.0930, -0.6499, -0.5525, -23.0793, 7.7878, 55.4665
-0.1324, -0.6263, -0.6970, -31.7988, -4.7122, 68.3933
-0.7153, -0.6687, -0.8517, -18.8110, -69.3463, 31.2591
-1.2548, -0.6522, -0.8871, 4.2378, -95.2000, -44.0457
-0.9414, -0.6924, -0.6816, 12.3476, 17.5439, -59.5945
-0.0338, -0.6069, -0.8004, 20.4573, 37.7878, -68.0091
0.4667, -0.5393, -0.6263, 26.3720, 48.0927, -26.3018
0.6164, -0.6076, -0.5330, 12.7744, 16.6902, -3.1311
0.3763, -0.6878, -0.5204, -7.1037, 14.3122, 42.2348
0.0647, -0.6458, -0.5511, -27.5915, 12.3610, 60.5884
-0.1972, -0.6105, -0.7396, -33.9329, -24.5902, 61.6860
-0.9389, -0.6586, -0.8740, -10.9451, -91.9683, 12.3567
-1.1918, -0.6351, -0.8728, 13.9329, -59.9561, -46.9726
-0.5569, -0.5584, -0.7206, 19.4817, 39.8000, -58.4360
0.1324, -0.6167, -0.7437, 27.3476, 39.4951, -56.9726
0.4510, -0.6105, -0.5391, 25.5793, 36.8732, -22.3994
0.6094, -0.6450, -0.5368, 7.4085, 16.3244, 12.9055
0.2665, -0.7377, -0.5105, -13.2012, 17.9707, 49.3079
0.0412, -0.6505, -0.5737, -33.0183, 22.7268, 68.5152
-0.2442, -0.6821, -0.7559, -32.3476, -30.3829, 62.9055
-1.0963, -0.6044, -0.9017, -9.4207, -107.1512, -4.1067
-1.3120, -0.6402, -0.8502, 14.5427, -50.3829, -54.1677
-0.5524, -0.6705, -0.6609, 16.0061, 52.4829, -70.3872
0.2804, -0.5362, -0.7494, 25.4573, 66.3854, -51.9726
0.5642, -0.6020, -0.5129, 20.8841, 33.7634, -21.5457
0.6189, -0.6363, -0.5126, 1.0671, 14.2512, 25.4055
0.2639, -0.6868, -0.4947, -22.5305, 8.2756, 54.0640
0.0503, -0.5656, -0.6379, -39.1159, 13.5805, 81.6860
-0.3570, -0.6071, -0.7400, -35.0915, -35.3220, 69.5518
-1.0396, -0.5910, -0.9235, -17.6524, -107.5780, 4.9177
-1.3495, -0.6638, -0.9345, 11.7988, -68.9805, -49.5945
-0.7692, -0.6688, -0.7367, 19.0549, 50.4707, -66.7287
0.1393, -0.6287, -0.7797, 26.8598, 59.3732, -62.8872
0.3921, -0.6141, -0.6240, 28.0183, 40.8976, -45.6921
0.5395, -0.6545, -0.5270, 13.5061, 11.9341, -11.1189
0.4181, -0.6906, -0.4775, -8.5061, 36.1415, 40.0396
0.1593, -0.6333, -0.5596, -26.7378, 35.2268, 61.9909
-0.0658, -0.5198, -0.6994, -35.2134, 3.5805, 72.7835
-0.6657, -0.6366, -0.7578, -21.3110, -75.2610, 40.9543
-1.2988, -0.6818, -0.8617, -1.6768, -104.5293, -28.5579
-1.0106, -0.6236, -0.6735, 8.3841, 22.0561, -45.4482
-0.2016, -0.6790, -0.6857, 12.9573, 50.4098, -62.7652
0.3896, -0.5438, -0.7303, 24.3598, 36.0195, -42.9482
0.4982, -0.6045, -0.5565, 18.6280, 6.8732, -19.9604
0.4968, -0.6836, -0.5502, 0.6402, 15.8366, 33.3933
0.1591, -0.6857, -0.5342, -18.8110, 16.0195, 57.8445
-0.0460, -0.6107, -0.6688, -31.9817, 4.3732, 72.9055
-0.5977, -0.6355, -0.7844, -21.7378, -63.0659, 41.0152
-1.3433, -0.6339, -0.9452, 2.1646, -111.6634, -34.4726
-1.1102, -0.6369, -0.7596, 16.3110, 14.0073, -55.3262
-0.2073, -0.6596, -0.7067, 18.6890, 61.2634, -61.3628
0.4209, -0.5366, -0.6888, 27.8963, 66.1415, -32.9482
0.5228, -0.6152, -0.5598, 17.9573, 13.8244, -14.5335
0.4428, -0.6726, -0.5331, -2.2256, 12.7268, 32.6616
0.0994, -0.6702, -0.5279, -21.3110, 14.7390, 52.4177
-0.0681, -0.6247, -0.6765, -31.4939, 7.9707, 69.8567
-0.6286, -0.6749, -0.7643, -20.5183, -65.6878, 37.4177
-1.3111, -0.6592, -0.8434, 3.0183, -107.3951, -42.3384
-1.0391, -0.6793, -0.7158, 12.5305, 8.8244, -53.9848
-0.1803, -0.6395, -0.7274, 18.3232, 53.2146, -62.7043
0.5453, -0.5493, -0.6185, 23.2012, 69.1902, -25.5091
0.6753, -0.6542, -0.5131, 10.2744, 18.5195, 5.6494
0.3556, -0.7370, -0.5071, -9.8476, 2.5439, 44.9787
0.0431, -0.6478, -0.5665, -29.6037, 9.8610, 64.8567
-0.2716, -0.6169, -0.7239, -31.1890, -27.5780, 60.9543
-1.0673, -0.6169, -0.8337, -15.7012, -98.3707, 6.1372
-1.2880, -0.6337, -0.8812, 7.9573, -68.6146, -49.5335
-0.7553, -0.6628, -0.7252, 12.1037, 38.4585, -69.7774
0.0999, -0.6130, -0.8131, 20.7622, 52.4829, -63.5579
0.4157, -0.6057, -0.6318, 21.0061, 46.0805, -33.6799
0.5047, -0.6691, -0.5850, 6.3720, 4.9829, -11.7287
0.3458, -0.6754, -0.5496, -10.6402, 25.0439, 36.0152
0.0920, -0.6440, -0.5721, -28.0793, 29.6780, 56.5640
-0.0703, -0.5421, -0.6700, -38.3841, 13.7634, 70.4055
-0.5957, -0.6558, -0.7947, -27.7744, -52.5171, 41.8689
-1.2625, -0.6176, -0.9042, -3.5671, -100.5659, -31.9116
-1.0895, -0.7593, -0.7044, 10.5793, 12.1171, -43.9848
-0.2177, -0.6542, -0.7054, 13.8110, 52.7268, -63.1311
0.4169, -0.5413, -0.6891, 21.0061, 58.3976, -40.1433
0.6146, -0.6559, -0.5109, 13.7500, 27.6659, -5.2652
0.5152, -0.6884, -0.5410, -1.8598, 15.1659, 36.6250
0.0758, -0.6743, -0.5581, -18.3232, 13.7024, 58.4543
-0.0866, -0.6015, -0.6777, -31.1280, 3.2756, 69.2470
-0.5520, -0.6594, -0.7418, -22.2256, -50.6878, 45.1616
-1.1918, -0.5716, -0.9272, -5.5793, -103.9805, -28.8628
-1.1252, -0.6501, -0.7643, 10.3963, -8.6756, -53.8628
-0.2976, -0.6307, -0.7385, 15.9451, 47.6049, -70.8750
0.3152, -0.5991, -0.7321, 23.3841, 54.1293, -48.2530
0.4582, -0.6427, -0.6194, 16.8598, 21.6902, -30.0213
0.5129, -0.7017, -0.5945, -2.6524, 16.4463, 14.3689
0.2200, -0.6745, -0.5443, -21.3720, 32.1780, 46.0762
0.0691, -0.6154, -0.5605, -38.6280, 33.9463, 66.7470
-0.2041, -0.5781, -0.7576, -33.9329, -34.1024, 57.5396
-1.0308, -0.5637, -0.8978, -16.2500, -98.0049, -6.9116
-1.1693, -0.5253, -0.8777, 8.1402, -54.5293, -44.6555
-0.6375, -0.5848, -0.7074, 16.6159, 40.3488, -62.3994
0.2255, -0.5836, -0.7327, 24.1768, 50.9585, -51.4848
0.6650, -0.5906, -0.5623, 23.5671, 46.7512, -5.4482
0.6482, -0.7145, -0.5340, 1.3110, 19.2512, 35.2226
0.1686, -0.7250, -0.5684, -22.4695, 0.8366, 55.5274
-0.1260, -0.5712, -0.7385, -33.7500, -12.5171, 68.9421
-0.7861, -0.6175, -0.8059, -21.2500, -70.3220, 27.0518
-1.3243, -0.6054, -0.8871, 0.8841, -101.6024, -42.6433
-0.9443, -0.5445, -0.7784, 9.9695, 16.8122, -58.8018
-0.1523, -0.6145, -0.7383, 17.7744, 42.5439, -65.2043
0.4032, -0.5393, -0.7002, 25.7622, 48.5195, -34.4726
0.4779, -0.6121, -0.6327, 18.2012, 15.5317, -17.3384
0.4654, -0.6840, -0.5892, 2.6524, 22.5439, 27.7226
0.1530, -0.7117, -0.5547, -14.9695, 23.1537, 50.1006
0.0429, -0.6592, -0.6257, -28.3841, 17.4220, 68.6372
-0.4507, -0.6085, -0.7617, -19.8476, -57.2122, 41.1982
-1.2858, -0.6025, -0.8755, -0.2744, -111.2976, -28.3140
-1.1477, -0.6420, -0.7166, 10.6402, -8.1268, -52.0335
-0.3275, -0.6323, -0.7518, 17.8354, 53.8244, -67.5823
0.4814, -0.5446, -0.7137, 32.4085, 65.4098, -33.7409
0.5203, -0.6408, -0.5049, 26.3110, 13.3976, -15.6311
0.4422, -0.6978, -0.5285, 1.7988, -9.1024, 18.2104
0.1315, -0.7001, -0.5637, -19.9695, 4.0073, 42.1738
0.0307, -0.5742, -0.6697, -33.2622, -1.2366, 60.8933
-0.4245, -0.6347, -0.8380, -23.1402, -74.0415, 38.0274
-1.3411, -0.6593, -0.9048, 3.6890, -132.4561, -37.8262
-1.1387, -0.6781, -0.7228, 14.0549, 9.8000, -59.1067
-0.2252, -0.6275, -0.8370, 25.3963, 46.9951, -75.8750
0.4681, -0.5568, -0.5653, 31.9207, 67.3610, -28.6189
0.5648, -0.6408, -0.5323, 13.5061, 6.5073, -17.0945
0.4059, -0.6815, -0.5458, -7.2866, 4.9829, 24.1860
0.0887, -0.6498, -0.6052, -24.4817, 9.1293, 48.8811
-0.0358, -0.5794, -0.6389, -33.5061, 5.1049, 64.4299
-0.4418, -0.6883, -0.8232, -19.6037, -57.9439, 45.1006
-1.2359, -0.6720, -0.8845, 0.3963, -102.0902, -27.2165
-1.0401, -0.6828, -0.7485, 13.9329, 0.5317, -50.4482
-0.3345, -0.7030, -0.7108, 17.4695, 48.9463, -70.5091
0.4572, -0.5789, -0.6636, 21.7378, 73.0927, -34.5945
0.7007, -0.6048, -0.4899, 8.9329, 38.3976, -2.5213
0.4798, -0.6916, -0.5253, -12.5915, 12.3610, 39.1860
0.0078, -0.6651, -0.6066, -29.6646, 7.7268, 53.4543
-0.1499, -0.5780, -0.7024, -35.7012, -6.2366, 64.8567
-0.7182, -0.6661, -0.8347, -17.1646, -53.7976, 33.0274
-1.2058, -0.6615, -0.8827, 3.4451, -86.5415, -37.3384
-0.9166, -0.6480, -0.6910, 17.4085, 23.8854, -52.2774
-0.1513, -0.6414, -0.7025, 19.6037, 51.8122, -66.6067
0.4606, -0.5265, -0.6621, 21.5549, 62.1780, -27.7652
0.6373, -0.6083, -0.5023, 9.0549, 25.1659, 0.5884
0.4484, -0.6809, -0.5275, -9.1768, 10.7146, 41.6860
0.0853, -0.6495, -0.5650, -27.8963, 6.6902, 61.7470
-0.1984, -0.5944, -0.7539, -31.0061, -25.9927, 64.1860
-0.9667, -0.6357, -0.8525, -12.5305, -93.6756, 10.5884
-1.2975, -0.6359, -0.8545, 9.7866, -82.6390, -51.4848
-0.7226, -0.6795, -0.6611, 12.8963, 41.9341, -65.3872
0.2388, -0.5979, -0.7499, 23.0183, 56.5073, -58.6189
0.5247, -0.5763, -0.5886, 21.1890, 28.4585, -23.4970
0.4971, -0.6110, -0.5379, 3.9329, -15.1390, -0.0213
0.1624, -0.6834, -0.5898, -9.7256, -5.5049, 32.6006
-0.0715, -0.6455, -0.6204, -20.3354, 4.0073, 49.3079
-0.3038, -0.6425, -0.7591, -19.6037, -26.9683, 43.4543
-0.9486, -0.7542, -0.8932, 1.5549, -96.2366, -12.2774
-1.1119, -0.6998, -0.7929, 16.0061, -43.3707, -57.9482
-0.4492, -0.7269, -0.7588, 16.7378, 32.1780, -78.1921
0.4671, -0.5730, -0.6219, 25.9451, 75.2878, -29.5945
0.6595, -0.5903, -0.4562, 10.0305, 39.6171, -1.1799
0.3661, -0.6832, -0.5076, -9.4817, -2.0293, 30.9543
-0.1000, -0.6370, -0.5998, -23.0793, -24.1024, 40.2226
-0.2990, -0.6055, -0.7317, -25.5183, -25.4439, 41.3811
-0.6354, -0.7645, -0.7850, -9.6646, -45.5049, 17.4177
-0.8947, -0.7050, -0.8350, 6.1280, -46.8463, -34.3506
-0.4588, -0.6490, -0.6588, 15.3354, 20.4098, -41.9116
-0.1035, -0.6704, -0.7328, 20.3963, -0.2000, -55.0213
0.2942, -0.5865, -0.5362, 17.2256, 33.5195, -11.7287
0.4943, -0.5942, -0.5195, -1.6159, 38.7024, 17.1128
0.2267, -0.7066, -0.5996, -15.9451, 2.5439, 38.5152
-0.0667, -0.6525, -0.6578, -24.9695, -5.5659, 51.6860
-0.3453, -0.7312, -0.7892, -19.2988, -20.0780, 42.9665
-0.9996, -0.7496, -0.8908, -1.4939, -69.2854, -10.4482
-0.9382, -0.6611, -0.7491, 11.4939, -5.5659, -44.0457
-0.3714, -0.6664, -0.7457, 14.4207, 30.8976, -70.6921
0.4731, -0.5405, -0.5797, 19.6037, 70.5317, -19.7774
0.6943, -0.5384, -0.4589, 4.0549, 48.8244, 13.3323
0.2854, -0.6862, -0.5534, -13.5061, -5.7488, 39.3079
-0.1680, -0.6495, -0.6335, -23.2622, -23.9805, 47.6006
-0.4415, -0.6458, -0.8004, -19.9085, -30.6268, 37.0518
-0.9779, -0.7688, -0.8649, -0.8841, -64.7732, -11.9726
-0.8517, -0.6618, -0.7132, 13.2012, -5.5659, -45.1433
-0.2969, -0.6867, -0.7404, 18.7500, 29.6171, -67.3994
0.5537, -0.5524, -0.5328, 21.0671, 64.9220, -12.8872
0.6606, -0.5811, -0.5051, 1.2500, 40.7146, 25.1616
0.1835, -0.7282, -0.6030, -16.6768, -11.6634, 41.3201
-0.1811, -0.6369, -0.6606, -24.9695, -12.2732, 51.2591
-0.4116, -0.6791, -0.8181, -18.9939, -29.9561, 37.2348
-1.0700, -0.7481, -0.8445, 1.1890, -67.8220, -17.6433
-0.8701, -0.6135, -0.7117, 13.9939, -3.1268, -46.1189
-0.2733, -0.6773, -0.7429, 19.6646, 22.2390, -72.5823
0.5536, -0.5492, -0.5428, 22.3476, 67.7268, -8.1921
0.7317, -0.5646, -0.4829, 1.9207, 49.8000, 28.6982
0.2210, -0.7476, -0.5702, -19.9695, -8.7366, 46.6250
-0.1514, -0.6579, -0.6428, -31.8598, -10.7488, 59.6738
-0.4590, -0.6983, -0.8373, -23.6890, -27.0293, 43.5152
-1.0947, -0.7047, -0.8762, -3.9329, -58.1878, -12.0945
-0.8883, -0.6019, -0.7714, 13.2622, 8.7024, -40.6921
-0.2679, -0.6790, -0.7162, 16.6159, 40.6537, -60.7530
0.5182, -0.5462, -0.5676, 17.4085, 60.8366, -9.9604
0.6863, -0.5816, -0.4825, 1.1890, 43.3976, 26.6860
0.1947, -0.7038, -0.5975, -18.2012, -9.8951, 42.2957
-0.2010, -0.6607, -0.6721, -28.4451, -13.6756, 53.2713
-0.5726, -0.6840, -0.9079, -16.2500, -46.4805, 30.9543
-1.1702, -0.6602, -0.9063, 6.7378, -82.5780, -38.1311
-0.9425, -0.6809, -0.6572, 19.3598, 9.8610, -61.1189
0.0299, -0.6173, -0.7006, 22.1037, 48.2146, -66.6677
0.4319, -0.5376, -0.5535, 23.2622, 54.4341, -26.6067
0.6461, -0.5991, -0.4827, 5.0305, 25.9585, 11.9299
0.2733, -0.7172, -0.5656, -12.4085, 3.3976, 37.1738
-0.0546, -0.6726, -0.6060, -22.9573, -1.5415, 51.8689
-0.2888, -0.6494, -0.7135, -22.6524, -8.1878, 55.5884
-0.8384, -0.7080, -0.8572, -6.4329, -65.2000, 11.7470
-1.0833, -0.6326, -0.8278, 11.4939, -68.7976, -53.6189
-0.6242, -0.7108, -0.6959, 12.5915, 28.9463, -65.5701
0.4276, -0.5633, -0.7009, 19.9695, 62.0561, -41.4238
0.7210, -0.6254, -0.4264, 12.3476, 55.2878, 14.6128
0.4514, -0.7413, -0.5284, -8.7500, 2.3000, 40.6494
-0.1014, -0.7050, -0.6050, -25.4573, -22.0902, 43.2713
-0.3667, -0.5958, -0.7175, -28.7500, -28.0659, 42.7835
-0.7284, -0.6933, -0.8489, -11.6159, -36.7244, 12.7835
-0.7890, -0.6141, -0.8462, 4.0549, -18.1878, -22.9482
-0.2982, -0.6078, -0.6680, 9.7256, 57.6049, -17.8262
0.1726, -0.6198, -0.6182, 8.6280, 50.0439, -11.7896
0.2479, -0.6438, -0.6335, 2.6524, 16.2024, 10.8933
0.1651, -0.6762, -0.6327, -4.7256, 5.2878, 25.4665
-0.0681, -0.6951, -0.7697, -9.7256, 4.2512, 31.8079
-0.4169, -0.6576, -0.8191, -2.2866, -8.3707, 22.2957
-0.6443, -0.7097, -0.7963, 4.5427, -19.2854, -6.1189
-0.5882, -0.5868, -0.7449, 13.0793, -0.9317, -27.0945
-0.4140, -0.6794, -0.5945, 13.4451, 21.5073, -44.2896
0.2203, -0.5842, -0.5552, 7.1037, 37.9098, -20.6921
0.5702, -0.5753, -0.4730, -4.4207, 45.1049, 15.0396
0.3708, -0.7105, -0.6130, -16.3110, 0.4098, 38.0274
-0.0382, -0.6688, -0.6650, -25.2134, -18.9195, 49.6128
-0.3936, -0.6799, -0.8950, -16.2500, -39.7122, 38.8201
-0.9569, -0.6547, -0.8862, -0.8841, -68.6756, -10.0823
-0.9378, -0.5939, -0.7930, 14.8476, -14.0415, -39.1677
-0.2655, -0.6268, -0.6396, 12.1037, 43.6415, -51.6067
0.4053, -0.5512, -0.6450, 10.0915, 44.3122, -19.4726
0.6731, -0.5482, -0.5464, 0.7622, 34.8000, 19.4909
0.3163, -0.7168, -0.6130, -13.8720, -5.0171, 44.7348
-0.0618, -0.6599, -0.6320, -26.0671, -14.7122, 57.6006
-0.5606, -0.6605, -0.9236, -16.0061, -56.1756, 37.6616
-1.1911, -0.6644, -0.9156, 3.4451, -91.9683, -31.7287
-0.9182, -0.6046, -0.7642, 14.7256, 25.3488, -48.0091
-0.1333, -0.6849, -0.6442, 15.1524, 61.7512, -55.1433
0.4762, -0.4940, -0.6491, 16.6768, 49.3122, -21.5457
0.5997, -0.5739, -0.5004, 2.0427, 25.5317, 9.1860
0.2655, -0.7102, -0.5770, -13.4451, -2.2732, 36.8689
-0.0629, -0.6444, -0.6608, -23.3232, 3.0317, 53.8811
-0.3250, -0.6184, -0.7934, -21.6768, -24.4073, 43.2104
-0.9826, -0.6821, -0.9012, -3.6280, -87.5780, -7.6433
-1.1486, -0.6311, -0.8028, 16.4939, -35.1390, -51.2409
-0.4902, -0.6151, -0.7454, 21.6768, 39.9829, -72.0335
0.3502, -0.5360, -0.6525, 27.5305, 70.6537, -34.2287
0.5479, -0.6409, -0.4737, 13.8110, 28.8854, -20.5091
0.5381, -0.6745, -0.5776, -2.8354, 13.4585, 26.3201
0.1224, -0.7060, -0.6141, -16.1280, -3.3707, 40.5884
-0.0911, -0.6771, -0.6158, -25.9451, -5.8098, 60.7713
-0.5094, -0.6939, -0.7819, -15.3354, -62.1512, 35.7713
-1.1194, -0.6042, -0.8639, 0.2744, -93.6146, -28.3750
-1.0065, -0.5836, -0.7554, 15.0915, -3.4317, -51.4238
-0.2932, -0.6761, -0.7085, 19.4207, 40.3488, -66.6067
0.4787, -0.5079, -0.6756, 29.6037, 87.7878, -18.1311
0.7961, -0.6426, -0.4465, 11.7988, 54.2512, 9.1860
0.4050, -0.7688, -0.4868, -12.8963, 4.9829, 45.1616
-0.0213, -0.6470, -0.6443, -27.4695, -21.4805, 53.8201
-0.3416, -0.6828, -0.7262, -28.4451, -16.2976, 52.3567
-0.5922, -0.6654, -0.7388, -20.6402, -21.2366, 35.7104
-0.8463, -0.6008, -0.8487, -9.3598, -42.0293, -9.4726
-0.7182, -0.5416, -0.8024, 6.0061, -10.2000, -35.5701
-0.3225, -0.6331, -0.7285, 13.4451, 32.3610, -45.1433
0.2784, -0.6518, -0.7205, 19.7866, 57.0561, -13.4360
0.6493, -0.6921, -0.5670, 10.7622, 58.7024, 24.0030
0.3395, -0.7536, -0.5365, -11.3720, 3.7024, 44.8567
-0.1528, -0.5892, -0.6428, -27.4695, -19.7732, 47.7835
-0.6654, -0.4971, -0.8867, -17.9573, -74.0415, 16.0762
-1.0747, -0.5980, -0.8334, 2.1037, -53.9805, -29.6555
-0.3507, -0.5769, -0.6113, 3.0793, 72.6049, -6.4238
0.4362, -0.6281, -0.5647, -2.5305, 97.1780, 21.8689
0.4998, -0.6823, -0.6215, -10.3963, 14.5561, 37.6006
-0.0897, -0.6723, -0.7721, -11.9817, -50.5049, 32.1738
-0.6923, -0.5899, -0.8176, -5.8841, -57.8220, 11.0762
-0.9814, -0.6148, -0.8551, 9.6646, -44.7122, -23.4970
-0.6462, -0.6319, -0.6923, 14.0549, 23.9463, -38.6189
0.0221, -0.6582, -0.6380, 13.7500, 48.5805, -34.3506
0.5931, -0.6251, -0.5536, 7.4695, 48.7024, 15.2226
0.4822, -0.7175, -0.5430, -11.0671, 12.9098, 36.9909
-0.0661, -0.6280, -0.6508, -25.1524, -21.9073, 44.9787
-0.6986, -0.5086, -0.9589, -15.1524, -82.0902, 14.1860
-1.2021, -0.6028, -0.9067, 12.2866, -69.9561, -39.2287
-0.5384, -0.6580, -0.7034, 14.6037, 55.9585, -30.2652
0.3373, -0.6409, -0.5842, 11.3720, 97.7878, -4.0457
0.6815, -0.6831, -0.4967, -2.4085, 52.0561, 32.7226
0.1553, -0.6618, -0.6172, -19.4207, -35.3829, 31.0152
-0.4672, -0.5552, -0.8461, -20.8841, -70.2610, 21.5640
-1.2334, -0.5336, -0.9670, 7.1646, -89.5293, -26.1189
-0.9770, -0.6520, -0.7442, 18.3841, 14.0073, -50.2043
-0.0749, -0.6171, -0.7300, 25.8232, 71.6293, -44.6555
0.4487, -0.6179, -0.5471, 22.0427, 61.2634, -13.9848
0.3905, -0.6352, -0.6027, 8.4451, -7.2732, -2.2774
-0.1984, -0.6255, -0.7116, -0.3963, -58.1878, -4.5335
-0.6647, -0.5957, -0.7884, 5.0915, -66.7854, -25.0823
-0.6284, -0.6322, -0.7432, 11.1280, -13.0049, -35.7530
-0.3314, -0.6838, -0.7228, 19.0549, 11.4463, -46.9116
0.0395, -0.7206, -0.6345, 21.3720, 25.8976, -34.7165
0.2652, -0.6531, -0.5858, 14.1768, 17.5439, -16.8506
0.1891, -0.6760, -0.5294, 2.4695, 1.9951, 5.7104
-0.0941, -0.6862, -0.6168, -7.9573, -18.7366, 3.3323
-0.2227, -0.5991, -0.6907, -8.3841, -6.1756, 8.3323
-0.0533, -0.5849, -0.6496, -11.6768, 19.8610, 19.9787
0.0481, -0.6931, -0.6353, -11.3720, 17.6049, 35.2226
-0.1187, -0.7750, -0.6813, -6.7378, -7.3951, 38.8201
-0.4215, -0.8141, -0.6855, -4.7866, -30.5659, 15.8933
-0.6445, -0.7710, -0.7714, 1.9207, -44.0415, -19.7165
-0.6222, -0.7174, -0.7429, 9.1768, -6.9683, -36.6067
-0.3631, -0.6879, -0.7160, 13.6280, 8.0317, -57.4604
0.0519, -0.5788, -0.6747, 18.5671, 13.8244, -49.6555
0.2122, -0.5581, -0.5397, 15.7012, 11.5683, -29.5945
0.3453, -0.5703, -0.4761, 1.0671, 14.9220, 8.8201
0.1919, -0.6496, -0.5297, -12.2866, 7.7268, 32.6616
0.0528, -0.6458, -0.6063, -19.9695, -3.7366, 52.4787
-0.2146, -0.7021, -0.7098, -19.9085, -29.5902, 49.6738
-0.7461, -0.7959, -0.8180, -10.3354, -70.5659, 11.1982
-1.0498, -0.7901, -0.8393, 8.9939, -75.7488, -42.3994
-0.7022, -0.7642, -0.7027, 16.2500, 17.9707, -63.1311
0.0483, -0.6851, -0.7855, 23.7500, 34.8610, -70.8750
0.4697, -0.5855, -0.4467, 24.6646, 58.7024, -19.3506
0.6673, -0.5875, -0.4050, -0.6402, 25.9585, 16.0152
0.2044, -0.6588, -0.5333, -21.3720, -12.2122, 39.6128
-0.1414, -0.6120, -0.6598, -28.9939, -29.9561, 49.2470
-0.5752, -0.7398, -0.7793, -19.0549, -57.2122, 30.9543
-1.1137, -0.8054, -0.8254, 4.4817, -89.4683, -28.7409
-0.9298, -0.7550, -0.7042, 15.9451, -3.3098, -62.0945
-0.0759, -0.6741, -0.7994, 23.5671, 45.9585, -73.1921
0.6315, -0.5963, -0.3967, 20.8841, 99.5561, -2.6433
0.8063, -0.6155, -0.4575, -4.2988, 48.2146, 37.1738
0.1902, -0.6986, -0.5540, -27.4695, -24.7732, 48.6982
-0.1718, -0.6197, -0.6688, -35.5793, -30.0171, 59.6128
-0.5738, -0.6987, -0.7541, -23.0183, -46.8463, 42.1128
-1.0443, -0.7217, -0.8389, -5.3354, -57.6390, -8.8628
-0.8082, -0.7024, -0.7297, 8.5061, 11.1415, -31.1799
-0.3262, -0.6067, -0.6547, 15.7012, 34.9220, -47.3994
0.0212, -0.6250, -0.7115, 19.6037, -8.5537, -52.4604
0.1693, -0.6174, -0.5389, 14.5427, 19.4951, -18.7409
0.4327, -0.5873, -0.5611, -1.1280, 31.8122, 11.9299
0.2396, -0.7016, -0.5867, -12.1037, 20.8976, 43.4543
0.0196, -0.6768, -0.6234, -19.7256, 3.0927, 54.6128
-0.2058, -0.7079, -0.6685, -20.7622, 6.5073, 62.4177
-0.6088, -0.7825, -0.7611, -13.3841, -33.9195, 34.0640
-1.0834, -0.7609, -0.8339, 1.1890, -68.3707, -30.2043
-0.9176, -0.6848, -0.7287, 11.2500, 2.8488, -57.4604
-0.2751, -0.6735, -0.7358, 19.2378, 34.8610, -75.8750
0.2678, -0.5330, -0.5958, 28.5061, 59.0073, -41.6067
0.4716, -0.5239, -0.4601, 14.2988, 23.1537, -22.1555
0.4401, -0.5430, -0.4867, -4.6646, 8.5195, 25.8933
0.0806, -0.5971, -0.5789, -16.1280, -4.6512, 46.6860
-0.0177, -0.6369, -0.6541, -25.7622, 0.8976, 68.5762
-0.3022, -0.7921, -0.6603, -21.2500, -21.7244, 65.5274
-0.8284, -0.8365, -0.8489, -13.8720, -69.8951, 15.1006
-1.0931, -0.7807, -0.8606, 4.6646, -62.0902, -41.0579
-0.7226, -0.7498, -0.6956, 11.0671, 24.1293, -67.0335
0.1157, -0.6182, -0.7357, 23.2012, 47.6659, -61.9116
0.4711, -0.5287, -0.4470, 22.8963, 52.3610, -19.5335
0.6023, -0.5465, -0.4359, 1.3110, 12.9098, 20.5884
0.0959, -0.6361, -0.5344, -14.9695, -27.2122, 35.9543
-0.1174, -0.5985, -0.6273, -22.1037, -14.0415, 58.8201
-0.2412, -0.7215, -0.6622, -23.5061, -9.2854, 63.0274
-0.7781, -0.8537, -0.8243, -13.7500, -56.7244, 26.0152
-1.1384, -0.8294, -0.8682, 3.9939, -87.2732, -42.5213
-0.9419, -0.8529, -0.7279, 13.8720, 16.5073, -70.5091
0.0297, -0.6255, -0.8327, 26.9207, 59.9220, -72.5823
0.3591, -0.5079, -0.5253, 30.2134, 69.6171, -39.7165
0.5746, -0.5023, -0.3688, 8.9939, 25.5927, -7.5213
0.3520, -0.5161, -0.4279, -13.8110, 2.0561, 35.5884
-0.0545, -0.5615, -0.5400, -26.6768, -22.9439, 49.6128
-0.2301, -0.5938, -0.7211, -26.0061, -12.3341, 67.0518
-0.5931, -0.8732, -0.7585, -18.5061, -41.3585, 40.5274
-1.0138, -0.9078, -0.8516, -1.0061, -58.5537, -16.1189
-0.7270, -0.6431, -0.7617, 10.2744, 16.7512, -38.4360
-0.3571, -0.6730, -0.7958, 17.8963, 19.2512, -67.9482
0.2532, -0.5254, -0.6007, 24.6037, 51.6293, -30.8750
0.4282, -0.4572, -0.4524, 9.1159, 37.6659, -11.4238
0.3549, -0.5712, -0.4731, -10.0305, 8.3366, 32.7835
-0.0366, -0.6632, -0.6317, -17.7744, -20.9317, 42.2957
-0.1622, -0.6693, -0.7126, -19.9085, -5.2610, 57.2957
-0.5068, -0.9108, -0.7324, -13.8720, -43.3098, 32.9055
-1.0773, -0.9090, -0.8101, 2.7744, -71.1756, -31.6067
-0.9065, -0.7330, -0.7058, 14.4817, 1.8122, -57.3994
-0.2571, -0.6528, -0.7972, 23.2012, 19.6171, -86.7896
0.3229, -0.4926, -0.4295, 26.9207, 83.3976, -24.1677
0.7547, -0.3765, -0.4452, 4.0549, 44.4951, 7.3567
0.3085, -0.5877, -0.5012, -13.4451, -17.2732, 36.9299
-0.0859, -0.6528, -0.6099, -20.0305, -37.3951, 50.3445
-0.2562, -0.7331, -0.6943, -18.2012, -14.5293, 62.6616
-0.7147, -0.9251, -0.7501, -11.4939, -37.0902, 29.2470
-1.0048, -0.9010, -0.8066, 1.9207, -61.2976, -31.3018
-0.7724, -0.7722, -0.6924, 11.2500, 0.9585, -57.6433
-0.1381, -0.6478, -0.7858, 22.4085, 21.3244, -82.8872
0.3878, -0.5083, -0.4330, 25.2134, 84.3732, -10.4482
0.7616, -0.4135, -0.4465, 2.4085, 57.2390, 25.8933
0.1881, -0.6516, -0.5110, -19.1159, -22.7000, 40.8323
-0.1858, -0.6507, -0.6108, -26.6768, -41.6634, 49.3079
-0.4726, -0.8363, -0.7313, -19.2378, -40.9927, 42.1128
-1.0291, -0.9442, -0.8625, -4.3598, -57.1512, -11.6067
-0.8470, -0.7740, -0.7567, 10.9451, 4.9220, -39.9604
-0.3812, -0.7062, -0.7906, 18.1402, 23.8854, -71.4848
0.4156, -0.5103, -0.5141, 20.2744, 74.8610, -23.4970
0.5619, -0.4426, -0.4274, -0.8232, 57.0561, 8.4543
0.2956, -0.5824, -0.4919, -18.0793, 0.0439, 33.2713
-0.1259, -0.6190, -0.6279, -23.6280, -30.0780, 42.2957
-0.2795, -0.7011, -0.6666, -22.3476, 0.4707, 56.6250
-0.5626, -0.9025, -0.7585, -12.9573, -27.5780, 32.1128
-0.9744, -0.8539, -0.8096, 2.4085, -64.6512, -31.0579
-0.8031, -0.6918, -0.6722, 13.3841, 0.5927, -57.0335
-0.0780, -0.6344, -0.7755, 22.5305, 25.9585, -74.2896
0.4309, -0.4975, -0.4247, 21.4329, 81.3244, -6.7287
0.7586, -0.4578, -0.4749, -2.0427, 50.0439, 26.4421
0.1676, -0.6696, -0.5579, -21.0061, -27.8220, 42.7835
-0.1617, -0.6440, -0.7034, -24.9695, -25.7488, 56.3201
-0.4079, -0.8190, -0.7208, -21.1890, -21.5415, 49.1250
-0.8687, -0.8767, -0.8154, -9.3598, -34.0415, 11.0762
-0.7908, -0.6684, -0.8179, 6.9207, -14.7732, -31.0579
-0.4808, -0.7065, -0.7162, 13.0183, 16.3244, -56.5457
0.0547, -0.5195, -0.7061, 18.8110, 23.3366, -51.4848
0.3749, -0.5130, -0.4673, 11.3720, 57.6049, -1.4238
0.5657, -0.5813, -0.5052, -5.7012, 31.8732, 34.0031
0.0392, -0.7118, -0.5851, -19.9085, -16.4195, 45.1006
-0.2064, -0.7001, -0.6880, -25.1524, -23.1878, 55.0396
-0.6794, -0.7867, -0.7651, -14.7256, -54.1634, 26.0152
-1.0931, -0.7528, -0.8268, 5.0305, -77.3341, -30.8140
-0.8936, -0.6942, -0.7008, 18.3232, 8.7634, -60.2043
-0.1469, -0.6490, -0.7354, 24.3598, 45.4707, -65.6311
0.3465, -0.4902, -0.5450, 29.7866, 63.8244, -18.6799
0.6488, -0.4699, -0.4171, 16.0061, 33.8854, 23.0884
0.1993, -0.6153, -0.4874, -3.8720, -11.6634, 49.8567
-0.0968, -0.6588, -0.5884, -21.6768, -11.8463, 59.7957
-0.1901, -0.7247, -0.6887, -25.7622, -24.7122, 65.9543
-0.8793, -0.7710, -0.8301, -10.2744, -74.5293, 21.6860
-1.1451, -0.8022, -0.8040, 8.9939, -76.4805, -37.9482
-0.8270, -0.7949, -0.6721, 14.7256, 26.0195, -60.7530
0.0331, -0.7045, -0.6431, 19.1159, 49.5561, -57.6433
0.5212, -0.4868, -0.4499, 13.1402, 60.1049, 0.0396
0.6014, -0.5406, -0.5003, -11.7378, 12.5439, 29.5518
0.0512, -0.6844, -0.6165, -28.6280, -29.5902, 40.6494
-0.2456, -0.6133, -0.6783, -29.7256, -34.8341, 53.2713
-0.5396, -0.7130, -0.7972, -17.6524, -52.8220, 39.8567
-1.2095, -0.8324, -0.7642, 5.5793, -89.7122, -22.7043
-0.9531, -0.6800, -0.7175, 14.6646, 12.1171, -44.3506
-0.3920, -0.7341, -0.6871, 18.5061, 33.5195, -69.7165
0.2260, -0.5628, -0.6116, 26.3720, 37.2390, -39.9604
0.2710, -0.5307, -0.4568, 18.2012, 14.1902, -7.3384
0.3595, -0.5368, -0.4606, -0.2744, 14.4341, 35.8933
0.0049, -0.6671, -0.5778, -16.0061, -3.3098, 48.5762
-0.1569, -0.7035, -0.6503, -25.7012, -5.0780, 58.7591
-0.4033, -0.7802, -0.7723, -15.2134, -32.7000, 46.7470
-1.0078, -0.8850, -0.8017, 2.5305, -73.2488, -8.0091
-0.9780, -0.7181, -0.7541, 15.1524, 1.5683, -37.8262
-0.5182, -0.7179, -0.7313, 20.5793, 36.7512, -61.9726
0.1312, -0.5675, -0.6465, 32.2256, 46.6293, -44.3506
0.2494, -0.5883, -0.4374, 24.1159, 24.8000, -23.1921
0.3174, -0.5437, -0.4354, 6.0061, 16.8122, 19.9787
-0.0294, -0.6763, -0.5107, -10.8841, -2.9439, 34.2470
-0.2191, -0.6745, -0.6161, -19.1159, 2.6049, 44.7957
-0.3137, -0.7260, -0.7352, -15.3354, -5.4439, 45.4665
-0.7784, -0.8368, -0.7457, 0.3354, -59.5902, 7.0518
-1.0639, -0.7802, -0.7399, 14.7256, -44.6512, -44.5945
-0.6892, -0.7642, -0.7034, 18.0183, 24.6171, -69.3506
0.1772, -0.6062, -0.6063, 25.7622, 66.6293, -44.2287
0.4286, -0.5755, -0.3749, 17.0427, 54.4341, -5.3262
0.3907, -0.5916, -0.4857, -5.3354, 4.5561, 22.4177
-0.1746, -0.6749, -0.5732, -20.3354, -27.8220, 25.8323
-0.3823, -0.6665, -0.6907, -21.1890, -14.4073, 27.8445
-0.3037, -0.6893, -0.7048, -16.0061, 6.2634, 30.4665
-0.3578, -0.7594, -0.6944, -7.2256, -4.0415, 22.0518
-0.5745, -0.8952, -0.7159, 1.6159, -28.8585, -4.5945
-0.5488, -0.8765, -0.6621, 4.5427, -3.9195, -22.9482
-0.3319, -0.7767, -0.6613, 4.7866, 15.1659, -37.3384
-0.0858, -0.6342, -0.7146, 11.7988, 1.8732, -37.0335
0.0953, -0.5376, -0.4692, 10.1524, 20.0439, -13.5579
0.1934, -0.4829, -0.4619, -2.8354, 13.8244, 17.8445
-0.0709, -0.5836, -0.5186, -14.4207, -14.1634, 30.5884
-0.1935, -0.6399, -0.5906, -20.5183, -12.8829, 43.5152
-0.2635, -0.8123, -0.6615, -16.3110, -26.4195, 43.6982
-0.7000, -0.9496, -0.7985, -4.2988, -46.8463, 8.0884
-0.7435, -0.8290, -0.7680, 5.3354, -18.7366, -25.8750
-0.4760, -0.7125, -0.6989, 9.3598, 21.5073, -39.7165
-0.2108, -0.6047, -0.7418, 16.5549, 5.2268, -51.0579
0.2855, -0.4790, -0.4440, 12.1037, 45.9585, -0.3872
0.3325, -0.5188, -0.4900, -3.8720, 34.8610, 30.4055
-0.0799, -0.6875, -0.5969, -16.4329, -8.5537, 43.2713
-0.2039, -0.7867, -0.6567, -22.7744, -0.3220, 52.3567
-0.4238, -0.8543, -0.7405, -16.5549, 0.6537, 41.5640
-0.6969, -0.7713, -0.7700, -10.7622, 4.7390, 16.9909
-0.7173, -0.6848, -0.8179, -2.2256, 4.6780, -15.6921
-0.5609, -0.6270, -0.7522, 3.8720, 24.7390, -33.1311
-0.2235, -0.6606, -0.7770, 9.0549, 53.0317, -32.1555
0.0630, -0.6583, -0.6255, 7.1037, 80.5317, -16.7287
0.4786, -0.6510, -0.5017, -4.2378, 88.8854, 20.8933
0.2381, -0.6848, -0.5555, -20.3354, 40.4098, 30.4055
-0.0644, -0.6934, -0.5751, -34.2378, 32.6049, 42.9055
-0.3399, -0.6194, -0.7385, -31.2500, -6.9073, 35.4055
-0.9665, -0.6945, -0.7869, -4.1768, -40.5049, 1.5030
-0.9271, -0.5371, -0.7562, 15.9451, 6.3854, -32.2165
-0.3950, -0.6204, -0.6126, 23.4451, 56.3854, -46.8506
0.1319, -0.5706, -0.6361, 25.8232, 35.7146, -43.5579
0.4509, -0.6257, -0.4478, 17.8963, 51.2634, -0.7530
0.5158, -0.7181, -0.4944, -0.4573, 19.7390, 26.3811
0.0387, -0.7668, -0.6163, -18.3232, -9.4073, 34.3079
-0.1011, -0.8089, -0.6756, -32.7744, 4.4341, 44.5518
-0.3416, -0.6705, -0.8784, -21.9817, -30.3220, 31.8079
-0.9400, -0.6160, -0.9271, -0.5183, -64.1634, -18.1921
-0.9563, -0.5391, -0.7957, 13.0793, 8.7634, -45.0213
-0.3339, -0.5750, -0.6213, 11.0671, 48.2146, -59.8384
0.3014, -0.5026, -0.6047, 10.6402, 60.2268, -35.1433
0.6484, -0.5684, -0.4448, 1.0061, 48.7634, 5.3445
0.4614, -0.7262, -0.5549, -10.9451, 6.0805, 31.8689
0.0224, -0.6752, -0.6337, -20.4573, -15.1390, 41.3811
-0.2680, -0.6260, -0.8265, -18.8110, -37.3341, 39.9787
-0.9180, -0.6452, -0.8668, 6.2500, -82.2732, -5.9970
-0.9552, -0.5908, -0.7657, 20.2744, -14.7122, -37.8262
-0.4729, -0.6059, -0.6350, 21.0061, 39.0683, -52.8872
0.1541, -0.6226, -0.6949, 19.2378, 9.4951, -61.7896
0.3108, -0.6745, -0.4919, 10.9451, 7.1171, -36.4238
0.6407, -0.6884, -0.5634, -2.7134, 5.1049, 2.9665
0.4209, -0.7998, -0.6073, -14.0549, 14.1902, 40.3445
0.1688, -0.6911, -0.6513, -25.5183, 5.2878, 59.5518
-0.1712, -0.6173, -0.7966, -23.9329, -32.3951, 55.1006
-0.9352, -0.5535, -0.8449, -7.9573, -96.5415, 4.9787
-1.2448, -0.5892, -0.8303, 12.5305, -60.5659, -41.8506
-0.6187, -0.5884, -0.6486, 14.8476, 55.7146, -49.6555
0.1175, -0.6121, -0.7101, 18.3841, 39.5561, -63.2530
0.5522, -0.6079, -0.5258, 17.7134, 49.4951, -14.3506
0.7310, -0.7009, -0.5358, 0.7622, 6.1415, 11.8689
0.3077, -0.7889, -0.5739, -13.4451, -3.3098, 44.8567
0.0284, -0.7070, -0.6114, -27.8354, 3.2756, 61.3201
-0.2817, -0.6568, -0.8141, -22.6524, -46.5415, 46.2591
-1.0407, -0.6555, -0.8229, -5.2744, -111.4805, -11.9726
-1.1113, -0.6221, -0.8024, 13.1402, -36.6634, -44.8384
-0.5082, -0.5825, -0.7234, 20.8232, 45.2268, -59.4116
0.1430, -0.6196, -0.7070, 28.3841, 41.8122, -56.6067
0.5077, -0.6445, -0.4893, 25.0915, 60.2878, -11.7896
0.7427, -0.7180, -0.4995, 1.0671, 29.4341, 17.6006
0.3218, -0.7844, -0.5436, -20.5793, -10.9317, 43.3933
-0.0507, -0.6580, -0.6737, -30.9451, -21.7854, 59.9177
-0.5217, -0.6449, -0.8059, -18.9329, -63.2488, 34.5518
-1.2265, -0.6450, -0.8495, 2.4695, -92.0902, -28.0091
-0.9201, -0.5615, -0.7666, 18.2622, 20.8366, -42.8262
-0.2493, -0.6628, -0.6675, 19.8476, 60.7146, -58.8018
0.4538, -0.5541, -0.6208, 23.3841, 75.5927, -25.1433
0.6380, -0.7229, -0.4107, 6.9817, 42.3000, -0.6311
0.5198, -0.7572, -0.5315, -12.9573, 6.9951, 35.1616
0.0924, -0.6856, -0.6306, -25.8232, -13.9805, 48.2713
-0.2490, -0.6250, -0.7726, -26.9817, -21.9683, 50.7104
-0.8168, -0.6361, -0.8295, -8.3841, -68.3098, 17.6006
-1.1503, -0.5737, -0.8637, 15.6402, -67.2122, -46.7896
-0.6664, -0.6696, -0.6207, 19.8476, 51.3854, -54.0457
0.0479, -0.6193, -0.7379, 24.4207, 55.7146, -62.2165
0.5406, -0.6582, -0.4987, 21.6159, 64.8610, -18.2530
0.7355, -0.7477, -0.4951, 1.0671, 19.5561, 7.5396
0.3761, -0.7819, -0.5305, -16.9207, -0.9317, 39.3079
0.0782, -0.6590, -0.6437, -27.7744, -6.5415, 59.8567
-0.2879, -0.6145, -0.7803, -24.4207, -39.9561, 47.8445
-1.0208, -0.6170, -0.8183, -5.5793, -102.2122, -5.0213
-1.1251, -0.6173, -0.7709, 14.2988, -36.2976, -44.4726
-0.4971, -0.6611, -0.6184, 15.3963, 60.3488, -50.6921
0.3011, -0.6046, -0.7103, 20.6402, 70.1049, -41.8506
0.4877, -0.6910, -0.4684, 12.7744, 33.1537, -13.8628
0.4184, -0.7155, -0.5489, -4.9085, -17.2732, 8.1494
0.0583, -0.7128, -0.6362, -15.2744, -19.9561, 25.4055
-0.0931, -0.5558, -0.6909, -15.0305, 0.0439, 46.8689
-0.1578, -0.6004, -0.7195, -15.4573, -7.5171, 48.6982
-0.5950, -0.7042, -0.7796, -3.5061, -45.0780, 20.7713
-0.8671, -0.6597, -0.8356, 10.2134, -60.5659, -25.8750
-0.6753, -0.6776, -0.7111, 20.1524, -4.4073, -40.3262
-0.3469, -0.7717, -0.6213, 22.6524, 9.5561, -59.8384
0.2338, -0.6164, -0.6047, 22.8963, 41.9341, -33.4969
0.5146, -0.6736, -0.4930, 9.9695, 33.3976, -3.6189
0.4816, -0.7252, -0.5202, -7.1646, 15.5317, 34.4299
0.1400, -0.7433, -0.5925, -21.7988, 5.4707, 46.9909
-0.0505, -0.7002, -0.6898, -23.6280, -7.4561, 51.9299
-0.4621, -0.7249, -0.7751, -14.5427, -46.4195, 30.9543
-0.9402, -0.7171, -0.8155, -0.3963, -69.5293, -16.2409
-0.7926, -0.6353, -0.6718, 10.2134, -3.6146, -38.5579
-0.3178, -0.6811, -0.5416, 8.2012, 24.6171, -55.7530
0.1209, -0.5788, -0.6509, 10.5793, 0.5317, -52.8872
0.3060, -0.5875, -0.5649, 14.9085, 5.1049, -16.7287
0.4160, -0.5818, -0.6006, 11.6159, 3.8244, 13.3933
0.1799, -0.7341, -0.6145, 3.0793, 4.1902, 35.1006
0.0911, -0.8081, -0.6540, -11.0671, 18.0317, 50.1616
-0.0690, -0.7962, -0.7048, -14.3598, -14.4683, 44.6738
-0.5568, -0.8167, -0.7771, -8.3841, -61.2976, 13.7591
-1.0112, -0.7492, -0.8493, 11.2500, -76.8463, -40.8750
-0.7755, -0.6988, -0.6704, 20.3354, 26.5073, -55.8140
-0.1737, -0.6691, -0.6225, 24.2988, 45.3488, -71.7896
0.3844, -0.5819, -0.4948, 27.6524, 70.7146, -28.1921
0.5940, -0.6682, -0.4424, 12.1646, 24.0683, -9.0457
0.4492, -0.7169, -0.4569, -6.4939, 4.5561, 29.1250
0.1369, -0.6820, -0.5427, -23.7500, -4.7732, 44.4909
-0.0711, -0.6841, -0.6498, -28.9939, -13.4317, 59.0640
-0.5075, -0.7283, -0.6996, -21.4329, -58.8585, 39.6738
-1.0964, -0.7018, -0.8179, -1.7988, -98.9195, -22.6433
-1.0172, -0.7224, -0.7187, 13.7500, -12.7000, -46.4848
-0.3394, -0.6994, -0.6329, 18.4451, 50.3488, -62.1555
0.3642, -0.6295, -0.6131, 26.0061, 54.9829, -41.6067
0.5257, -0.6709, -0.4957, 19.7256, 30.4098, -10.6311
0.5555, -0.7310, -0.5231, 1.6159, 14.9829, 25.8323
0.2097, -0.7500, -0.5303, -16.0671, 6.8732, 48.1494
0.0150, -0.6689, -0.6040, -27.6524, -3.1878, 62.3567
-0.4871, -0.7391, -0.7197, -16.6159, -60.8098, 43.1494
-1.1618, -0.7195, -0.8325, 5.0915, -102.7000, -24.1677
-1.0144, -0.7263, -0.6992, 19.3598, 4.3732, -44.2287
-0.2550, -0.7102, -0.6141, 26.9817, 71.3244, -54.2896
0.4173, -0.6688, -0.5572, 31.9817, 63.0317, -30.9360
0.3171, -0.7224, -0.4304, 25.1524, 12.4829, -22.7043
0.3656, -0.7182, -0.4450, 7.1037, -1.1756, 5.2835
0.1698, -0.7904, -0.4938, -9.7256, 14.0683, 26.2591
0.1084, -0.7418, -0.5293, -20.6402, 17.7878, 45.1616
-0.0220, -0.7799, -0.6044, -21.3110, -7.8829, 49.2470
-0.4576, -0.8123, -0.5883, -10.7012, -51.9073, 33.2713
-0.9396, -0.8250, -0.7238, 1.2500, -76.4195, -17.9482
-0.8513, -0.7724, -0.6278, 8.9939, -3.9805, -44.4116
-0.3198, -0.7381, -0.6247, 14.6646, 30.8366, -62.2165
0.1667, -0.7056, -0.5962, 19.5427, 16.2634, -58.9238
0.1436, -0.7326, -0.5287, 19.6646, -5.8707, -49.2896
0.2428, -0.6820, -0.5224, 9.4817, -11.2976, -27.0945
0.3664, -0.6959, -0.5103, -5.8841, 30.6537, 14.5518
0.3075, -0.7702, -0.4786, -20.8232, 30.0439, 38.6372
0.1650, -0.7514, -0.5424, -33.2012, 3.5195, 60.3445
-0.2588, -0.7555, -0.6392, -28.2622, -51.6024, 49.3079
-0.9279, -0.7249, -0.7136, -17.1037, -92.0902, 6.7470
-1.1575, -0.6427, -0.7366, -0.0305, -53.4317, -41.1799
-0.6757, -0.6575, -0.6089, 7.8354, 30.1049, -60.0823
0.0109, -0.5974, -0.6659, 19.8476, 28.8854, -67.2165
0.4446, -0.6148, -0.5108, 22.1646, 43.0317, -24.5945
0.6919, -0.7038, -0.4801, 7.5915, 27.4829, 7.9665
0.5173, -0.8164, -0.4785, -10.2744, 21.3854, 53.2104
0.2279, -0.8177, -0.4827, -35.3963, 1.9951, 70.2835
-0.2406, -0.7620, -0.7283, -32.2866, -67.2122, 56.6250
-1.1311, -0.7598, -0.8084, -14.2988, -136.7244, -8.0701
-1.2791, -0.6741, -0.7321, 8.6890, -32.7000, -47.0335
-0.4497, -0.7025, -0.5735, 11.7378, 78.4585, -64.6555
0.4053, -0.6244, -0.6063, 21.1280, 69.6171, -47.0945
0.6886, -0.7221, -0.3133, 9.0549, 58.2146, 7.8445
0.7115, -0.7439, -0.4505, -15.5183, 15.7146, 41.5031
0.1663, -0.7541, -0.5636, -36.1890, -10.0171, 57.7226
-0.1280, -0.6583, -0.7352, -39.7256, -19.7122, 68.9421
-0.7241, -0.6948, -0.8159, -21.0671, -86.1146, 35.4055
-1.3210, -0.6349, -0.8827, 11.9207, -107.8220, -43.9238
-0.8787, -0.6462, -0.6439, 23.0793, 49.7390, -54.9604
-0.0474, -0.6339, -0.5848, 33.3232, 83.0927, -54.2896
0.6009, -0.6289, -0.4545, 31.3720, 79.0073, -5.0823
0.7140, -0.7340, -0.3552, 6.9207, 43.2146, 33.5762
0.2971, -0.8306, -0.4475, -20.0915, -2.0902, 50.6494
0.0027, -0.7398, -0.5629, -37.4695, -6.4195, 65.5884
-0.3938, -0.7142, -0.7959, -31.6768, -59.7122, 47.0518
-1.1630, -0.7371, -0.8503, -6.0671, -124.6512, -18.4970
-1.0845, -0.7605, -0.7783, 16.3720, -7.0902, -41.3628
-0.3057, -0.7882, -0.6436, 24.6037, 69.4341, -59.0457
0.4803, -0.7321, -0.5987, 31.5549, 79.9829, -35.5701
0.5965, -0.8180, -0.3481, 19.1768, 47.0561, -9.0457
0.5818, -0.8339, -0.3904, -3.6890, 20.6537, 23.7591
0.2018, -0.8083, -0.4340, -24.9695, 0.6537, 32.6616
0.0347, -0.7088, -0.4803, -38.5671, 4.8610, 47.2957
-0.2893, -0.6996, -0.6506, -29.9695, -43.5537, 31.1372
-0.9375, -0.6613, -0.7390, -11.0671, -106.9073, -22.3384
-1.0474, -0.6546, -0.7028, 11.5549, -43.9805, -49.7774
-0.5271, -0.6309, -0.5913, 18.1402, 46.0805, -59.1677
0.1985, -0.5640, -0.6850, 25.8232, 45.9585, -40.2043
0.3003, -0.6389, -0.5086, 24.1159, 35.4707, -3.7409
0.4562, -0.6771, -0.5402, 8.1402, 19.4951, 36.3811
0.1600, -0.7619, -0.5898, -10.1524, 11.0195, 57.7226
0.0317, -0.7111, -0.6094, -30.0305, 22.1780, 77.4787
-0.3560, -0.6865, -0.7894, -27.1646, -37.3341, 57.7835
-1.1276, -0.7309, -0.8121, -10.0305, -114.5293, -7.2774
-1.2836, -0.7412, -0.7203, 6.0671, -25.5659, -41.1799
-0.5036, -0.6712, -0.6022, 10.1524, 61.8732, -62.8262
0.3580, -0.5312, -0.5362, 20.8841, 95.9585, -24.5945
0.6133, -0.6124, -0.3474, 9.7866, 64.3122, 14.9787
0.6245, -0.7030, -0.3766, -12.7744, 29.9829, 57.7226
0.2009, -0.7318, -0.4609, -39.7256, -9.5293, 73.7591
-0.1418, -0.6696, -0.7396, -43.0793, -40.6268, 78.0884
-0.8909, -0.6414, -0.8777, -27.1037, -111.8463, 29.9787
-1.5289, -0.8029, -0.8920, 4.9085, -132.3342, -43.2530
-1.0294, -0.7023, -0.7320, 15.5183, 39.6780, -59.9604
0.0519, -0.6450, -0.6887, 23.0793, 85.5927, -61.6677
0.4922, -0.6938, -0.4979, 21.6159, 83.1537, -15.2652
0.6282, -0.7384, -0.4598, 3.5061, 35.5927, 12.4787
0.3152, -0.8103, -0.4443, -17.8963, 2.8488, 43.8811
-0.0513, -0.6641, -0.5026, -35.8841, -0.9317, 56.3811
-0.3895, -0.5538, -0.7911, -33.1402, -49.3463, 40.1006
-1.1658, -0.6207, -0.7772, -13.6280, -107.7610, -10.9360
-1.2257, -0.6023, -0.7432, 4.3598, -45.2000, -48.1921
-0.5455, -0.6497, -0.6555, 8.9329, 36.5683, -66.1189
0.2329, -0.6004, -0.7108, 18.9329, 44.5561, -52.7652
0.4394, -0.6824, -0.5236, 13.9939, 33.4585, -22.9482
0.5551, -0.7482, -0.5502, -3.3232, 17.3610, 17.6616
0.1956, -0.8186, -0.5707, -22.7744, 1.8122, 43.3933
-0.0314, -0.7086, -0.6591, -37.5915, 1.2634, 61.9299
-0.4556, -0.6861, -0.8046, -29.1768, -58.0659, 36.8689
-1.2709, -0.6508, -0.9097, -5.0305, -126.2976, -32.4604
-1.2323, -0.6134, -0.7146, 10.7012, -1.5415, -57.5823
-0.3085, -0.6079, -0.6155, 12.6524, 62.8488, -74.9604
0.3031, -0.5513, -0.5101, 17.6524, 73.9463, -41.1799
0.5857, -0.5835, -0.4003, 7.7744, 53.8244, 0.1006
0.5917, -0.6641, -0.5028, -9.1159, 23.2756, 44.1860
0.1189, -0.6538, -0.5635, -24.6037, -11.1146, 56.3811
-0.1770, -0.6124, -0.7081, -28.5671, -19.2244, 72.2348
-0.7502, -0.7086, -0.7670, -12.4085, -84.8951, 36.1372
-1.3413, -0.7174, -0.8518, 15.0305, -120.3220, -42.6433
-0.9672, -0.7474, -0.6738, 20.0305, 29.2512, -60.7530
-0.0357, -0.6956, -0.7099, 21.4329, 63.7634, -68.1921
0.6174, -0.6311, -0.5779, 23.8110, 83.6415, -10.3872
0.7638, -0.6903, -0.4611, 2.4695, 50.2268, 28.2104
0.3035, -0.7572, -0.4879, -23.5671, -8.0659, 45.6494
-0.0552, -0.6095, -0.5878, -38.0793, -16.6634, 66.4421
-0.5051, -0.6389, -0.7395, -28.5061, -66.4195, 48.5762
-1.1987, -0.6651, -0.8257, -7.2256, -115.8707, -14.1677
-1.0776, -0.6638, -0.7678, 12.2866, 2.7268, -33.6799
-0.1912, -0.6037, -0.6274, 16.1890, 90.8366, -25.4482
0.3800, -0.6711, -0.5685, 11.6159, 73.7634, -3.7409
0.3785, -0.6684, -0.5787, -1.4329, 17.2390, 19.1860
0.0057, -0.6798, -0.6075, -16.3720, -31.1146, 19.6738
-0.3964, -0.5809, -0.7684, -15.0305, -51.2976, 16.5640
-0.8696, -0.6523, -0.8067, -0.6402, -58.4927, -13.9238
-0.6784, -0.6593, -0.7122, 9.3598, 19.0683, -19.1067
-0.1339, -0.6785, -0.6097, 12.2866, 61.9341, -16.9116
0.1534, -0.7070, -0.5693, 8.9329, 34.4951, -8.0701
0.1028, -0.6953, -0.5813, 2.4695, 3.0317, 5.4665
-0.1270, -0.6985, -0.6135, -5.0915, -11.4195, 6.9299
-0.2885, -0.6530, -0.6807, -9.7256, -6.5415, 5.8323
-0.3327, -0.6254, -0.7082, -8.2012, 4.1293, 1.3201
-0.2828, -0.6185, -0.7164, -4.0549, 13.5195, -1.7287
-0.2000, -0.6015, -0.6815, -3.7500, 21.5683, -2.5823
-0.1577, -0.6015, -0.6479, -9.3598, 28.6415, -0.2652
-0.1111, -0.6116, -0.6381, -15.8841, 25.5927, 5.1006
-0.1303, -0.6022, -0.6442, -19.2378, 24.0683, 12.7226
-0.1217, -0.5846, -0.6387, -24.4207, 33.5195, 20.9543
-0.1190, -0.6353, -0.5900, -29.0549, 23.3366, 27.5396
-0.1022, -0.6736, -0.6414, -30.2134, -12.5171, 29.9787
-0.2286, -0.6547, -0.7223, -25.0305, -35.0780, 27.0518
-0.3249, -0.6209, -0.7607, -19.2378, -32.3951, 20.1006
-0.2863, -0.6220, -0.7831, -16.0671, -15.5659, 19.6738
-0.2316, -0.5974, -0.7824, -13.0183, -7.3951, 19.0640
-0.2329, -0.5759, -0.8018, -11.3110, -10.2000, 18.1494
-0.2362, -0.5991, -0.7858, -9.7256, -15.9927, 20.6494
-0.2592, -0.5979, -0.7838, -6.3720, -17.9439, 22.3567
-0.2963, -0.5850, -0.7446, -3.4451, -15.3220, 21.3811
-0.3507, -0.5734, -0.7357, -1.6159, -7.6390, 18.1494
-0.3400, -0.5663, -0.7278, -2.6524, -0.2000, 17.6006
-0.2890, -0.5660, -0.7139, -3.9329, -1.3585, 16.3201
-0.3005, -0.5454, -0.7116, -7.0427, -8.1268, 14.8567
-0.3198, -0.5547, -0.7278, -9.1768, -10.9317, 15.6494
-0.3608, -0.5518, -0.7441, -9.0549, -10.7488, 15.2226
-0.3517, -0.5504, -0.7590, -8.9329, -9.1634, 14.9177
-0.3519, -0.5481, -0.7478, -6.9207, -9.7122, 13.9421
-0.3532, -0.5277, -0.7581, -5.7622, -8.2488, 13.5762
-0.3806, -0.5370, -0.7731, -3.9329, -7.9439, 13.9421
