ax,ay,az,gx,gy,gz
-0.1657, -0.4786, -0.8573, -1.9817, -5.9317, -0.0823
-0.1505, -0.4800, -0.8347, -1.2500, -8.6756, 0.1006
-0.1822, -0.4834, -0.8507, -1.3720, -10.8707, -0.2043
-0.2053, -0.4778, -0.8587, -1.0671, -11.8463, -2.1555
-0.1931, -0.4839, -0.8295, -0.8232, -9.4073, -2.2774
-0.2168, -0.4769, -0.8411, -1.3110, -6.3585, -3.0091
-0.1995, -0.4735, -0.8446, -1.4939, -6.0537, -4.0457
-0.1927, -0.4767, -0.8261, -2.7134, -9.2854, -3.7409
-0.2095, -0.4559, -0.8436, -2.7134, -9.1634, -4.5335
-0.2171, -0.4649, -0.8276, -3.0793, -4.6512, -3.6189
-0.2166, -0.4522, -0.8120, -3.9939, -2.0293, -2.1555
-0.1923, -0.4500, -0.8130, -4.4817, -2.1512, -0.1433
-0.1852, -0.4559, -0.8406, -4.3598, -4.1024, -0.5701
-0.2258, -0.4534, -0.8385, -3.2012, -3.9805, -2.2774
-0.2208, -0.4586, -0.8300, -1.3720, 4.0073, -1.9726
-0.2141, -0.4420, -0.8398, 1.3720, 7.9098, -1.7287
-0.1807, -0.4620, -0.8564, 4.4207, 5.7756, -3.4360
-0.1795, -0.4572, -0.8110, 5.8232, -0.5049, -2.0335
-0.2244, -0.4628, -0.8682, 5.3354, 2.6659, -3.8628
-0.2285, -0.4577, -0.9271, 8.2012, -1.5415, -5.9970
-0.2084, -0.4914, -0.8113, 4.9695, -0.9927, -8.8018
-0.2545, -0.4772, -0.8611, 4.7256, 17.9707, -12.2165
-0.2715, -0.4907, -0.9037, 2.8354, 29.0073, -14.8384
-0.1581, -0.4818, -0.8840, 5.5183, 36.0805, -13.6189
-0.1655, -0.4621, -0.8611, 6.3720, 35.8976, -14.2287
-0.1535, -0.4679, -0.8828, 5.7622, 37.6659, -14.4116
-0.1760, -0.4657, -0.9020, 8.5061, 40.8366, -16.9726
-0.1423, -0.4876, -0.8560, 8.9939, 60.1049, -15.3872
-0.0540, -0.4669, -0.8483, 8.9939, 64.8000, -12.0945
-0.0623, -0.4783, -0.8607, 9.6646, 57.0561, -17.3994
-0.0550, -0.4913, -0.8289, 10.1524, 66.9951, -15.1433
-0.0452, -0.5283, -0.7805, 6.7988, 84.0073, -16.1799
0.1042, -0.4968, -0.8394, 6.9207, 85.5317, -12.3994
0.1684, -0.4981, -0.8162, 8.8110, 49.6171, -14.8994
0.1450, -0.5330, -0.7971, 7.7134, 38.3976, -17.3994
0.1381, -0.5077, -0.8702, 6.1280, 36.5073, -14.0457
0.1119, -0.5371, -0.8301, 3.5061, 41.5683, -14.9604
0.1772, -0.5270, -0.8293, -1.0061, 46.9951, -13.4970
0.2717, -0.5254, -0.8334, -3.9329, 32.9098, -11.7287
0.2539, -0.5205, -0.8455, -3.9329, 11.9341, -9.7774
0.1934, -0.5144, -0.8159, -6.1890, 12.7268, -10.5091
0.1520, -0.4801, -0.8248, -8.4451, 27.1171, -8.1311
0.2252, -0.4932, -0.8157, -8.5671, 30.6537, -8.3140
0.2662, -0.5029, -0.7306, -10.0915, 25.6537, -5.7530
0.2277, -0.4750, -0.7527, -9.2988, 24.9220, -6.9116
0.2178, -0.4791, -0.7230, -7.3476, 22.3000, -7.5823
0.2747, -0.5049, -0.6799, -7.5915, 24.9829, -7.0335
0.2775, -0.4876, -0.6634, -8.5671, 18.8244, -9.8994
0.3104, -0.5324, -0.6605, -8.3841, 7.6049, -13.1921
0.3215, -0.5488, -0.6435, -5.8232, -8.6756, -14.6555
0.2736, -0.4898, -0.6710, 0.0305, -9.4073, -17.9482
0.2900, -0.5084, -0.7114, 11.3110, -10.6268, -20.0823
0.3141, -0.4738, -0.7069, 17.4695, -24.5902, -17.1555
0.2493, -0.3642, -0.7556, 17.4085, -29.1634, -20.3262
0.2430, -0.3086, -0.8480, 12.8354, -2.1512, -10.8750
0.3325, -0.3387, -0.8642, 6.4329, 14.3122, 5.8933
0.4317, -0.3611, -0.8894, 1.7378, 5.2878, 15.5884
0.3640, -0.4190, -0.8547, -1.9207, -1.9683, 25.1616
0.2071, -0.4758, -0.8998, -0.0915, 9.6780, 28.6982
0.1556, -0.6211, -0.8134, 0.5183, 7.0561, 22.8445
0.0674, -0.7602, -0.7710, 1.6159, -4.1634, 0.5274
0.1709, -0.6933, -0.7430, 1.9207, 2.1171, -22.2165
0.2902, -0.5686, -0.7416, -1.0061, 5.2878, -33.3750
0.4054, -0.4200, -0.7254, -5.1524, 10.1659, -29.0457
0.4700, -0.2399, -0.8444, -4.3598, 0.2878, -13.0701
0.3659, -0.2620, -0.8502, -3.2012, -6.4195, 4.8567
0.2033, -0.2664, -0.8787, -0.4573, 2.9098, 16.2591
0.2601, -0.3189, -0.8280, -0.7012, 36.0805, 27.4787
0.3948, -0.4727, -0.6796, -6.3720, 38.0927, 38.2104
0.3688, -0.5765, -0.7316, -11.9817, -6.7854, 33.7591
0.0961, -0.7078, -0.6976, -10.9451, -22.0902, 16.8079
0.0881, -0.7061, -0.7268, -6.9817, -12.1512, -0.2043
0.2496, -0.5909, -0.7359, -8.5671, -17.3341, -18.7409
0.2763, -0.4358, -0.8463, -5.7012, -19.3463, -23.8018
0.2712, -0.3576, -0.8732, -0.4573, -0.6878, -18.3140
0.3729, -0.2790, -0.8322, 1.6159, 11.0805, -1.6067
0.3872, -0.2580, -0.8426, 0.8232, 5.2878, 10.3445
0.3067, -0.3484, -0.8380, -1.1280, 4.5561, 20.7713
0.3219, -0.4143, -0.8608, -0.2744, 17.9707, 34.2470
0.2573, -0.5305, -0.7985, -1.8598, 15.4098, 33.6982
0.1561, -0.6642, -0.7998, -5.8841, 6.5073, 17.9055
0.1386, -0.7859, -0.7386, 1.4939, -10.3220, 0.2835
0.1662, -0.6553, -0.7252, 5.2744, -18.7366, -25.9970
0.2519, -0.5150, -0.6658, 3.2622, -7.8220, -33.6799
0.3645, -0.3568, -0.6456, -1.0671, -0.9317, -24.2896
0.4155, -0.2259, -0.7061, -5.7012, -22.5780, -5.7530
0.4163, -0.2090, -0.7648, -5.8841, -25.0780, 14.8567
0.2863, -0.3245, -0.8350, -3.3841, -16.1146, 29.7348
0.2887, -0.4671, -0.8319, -4.1159, -6.5415, 40.8933
0.1916, -0.6367, -0.9001, -5.2134, -33.4317, 29.5518
-0.0981, -0.7235, -0.9363, -2.1646, -43.3098, -3.1921
-0.0505, -0.6328, -0.9789, 4.7256, -17.2122, -22.3384
0.0777, -0.5128, -0.9794, 11.1280, -10.0171, -39.2287
0.1883, -0.3891, -0.9255, 11.9817, 1.2024, -42.8872
0.4228, -0.3320, -0.8109, 7.2866, 21.4463, -23.5579
0.5756, -0.3013, -0.7320, -0.0305, 34.5561, 6.9299
0.5276, -0.3842, -0.6596, -15.2744, 22.5439, 32.2957
0.2878, -0.4296, -0.7269, -25.7622, 5.0439, 43.9421
0.0803, -0.5205, -0.7762, -28.8110, 0.1049, 39.5518
-0.0836, -0.6157, -0.8308, -25.3963, -19.7122, 12.6006
-0.0936, -0.5415, -0.9797, -3.8720, -27.3341, -14.1677
-0.0213, -0.4772, -0.9092, 16.6159, -6.5415, -32.5213
0.1518, -0.4606, -0.7928, 20.2134, 11.3244, -35.4482
0.4330, -0.4011, -0.7206, 14.9695, 9.6780, -29.5945
0.6672, -0.3667, -0.6080, 6.7378, 3.6415, 2.5396
0.5058, -0.3804, -0.5832, -9.5427, -0.0171, 29.7348
0.2924, -0.3848, -0.7001, -25.3354, -8.3098, 42.7835
0.1324, -0.4781, -0.6935, -38.9329, -30.8098, 38.9421
-0.1001, -0.5529, -0.8331, -36.7378, -83.9195, 12.7226
-0.2778, -0.5131, -0.9026, -24.4207, -76.7244, -18.9848
-0.0952, -0.4613, -0.9322, -11.2500, -35.4439, -31.2409
0.0799, -0.3913, -0.9838, -1.7378, -33.8585, -33.9238
0.2095, -0.3789, -0.9434, 2.2256, -44.6512, -38.5579
0.2867, -0.3418, -0.9832, 8.6890, -39.1024, -25.3872
0.3652, -0.3422, -0.9313, 7.8963, -18.3707, 0.8323
0.4335, -0.3837, -0.8926, -2.0427, -3.2488, 28.0884
0.2623, -0.4226, -0.8854, -15.3354, -16.6634, 38.4543
-0.2160, -0.4443, -1.0348, -15.4573, -45.3829, 19.9787
-0.4378, -0.5030, -0.9985, -9.7256, -43.3707, -11.8506
-0.3813, -0.4546, -1.0165, 3.2622, -28.0049, -38.4360
-0.1247, -0.4419, -0.9300, 7.3476, -1.0537, -51.6067
0.2450, -0.3224, -0.8937, 11.1280, 25.8976, -42.9482
0.5593, -0.3059, -0.7485, 4.2378, 19.8000, -8.0091
0.5105, -0.3333, -0.7468, -7.1646, 4.8000, 22.9665
0.2112, -0.3491, -0.7857, -18.3841, -5.3220, 37.8445
-0.0510, -0.3943, -0.9547, -18.0793, -30.6268, 39.1250
-0.4282, -0.4147, -1.0285, -3.1402, -53.1878, 7.0518
-0.5485, -0.4980, -0.9761, 10.8841, -40.0171, -26.0579
-0.2900, -0.4733, -0.9197, 15.7622, -7.3951, -45.7530
0.0874, -0.3637, -0.8679, 14.2378, 12.1780, -52.0335
0.3994, -0.3336, -0.8061, 7.2256, 14.8610, -29.5335
0.4403, -0.3341, -0.8473, 0.9451, -4.1024, -6.8506
0.3535, -0.3674, -0.8365, -6.3110, 10.7756, 26.5030
0.2157, -0.3948, -0.8329, -17.1646, 11.0805, 43.3933
-0.2187, -0.4005, -0.9910, -11.4939, -41.3585, 26.8689
-0.6322, -0.4855, -1.0321, 1.0061, -73.2488, -17.7652
-0.5788, -0.5042, -0.9383, 10.2744, -20.9317, -44.2896
-0.0682, -0.4245, -0.8631, 13.5671, 24.8610, -52.2774
0.3595, -0.2829, -0.8361, 11.9207, 17.5439, -38.1921
0.4617, -0.2793, -0.7657, 5.1524, -12.2122, -18.4360
0.4012, -0.3114, -0.8071, -4.6037, -6.7244, 16.3201
0.1545, -0.3553, -0.8691, -11.1280, 13.0927, 36.5031
0.0429, -0.4132, -0.9357, -13.8110, -11.1756, 44.6738
-0.4612, -0.4964, -1.0314, 1.0061, -64.0415, 7.7835
-0.7609, -0.5563, -1.0151, 15.2134, -54.8341, -39.2896
-0.3841, -0.5047, -0.8923, 17.7744, 17.3610, -52.2774
0.3266, -0.3251, -0.7989, 13.9329, 47.6049, -40.2043
0.5810, -0.2962, -0.7203, 5.3354, 15.2268, -14.6555
0.5427, -0.3121, -0.7875, -7.5915, -1.0537, 24.2470
0.1512, -0.3382, -0.8348, -15.0305, 0.8366, 41.4421
-0.0606, -0.3896, -0.9103, -21.2500, 0.8976, 51.4421
-0.4359, -0.4470, -1.0543, -8.2012, -62.0293, 19.6738
-0.7814, -0.4889, -1.0732, 10.6402, -73.7976, -33.8018
-0.4646, -0.4744, -0.9139, 14.3598, 14.6171, -47.5823
0.1551, -0.3725, -0.9192, 12.2866, 44.5561, -43.6189
0.6166, -0.3397, -0.7698, 5.0915, 43.5195, -4.7774
0.6536, -0.3540, -0.7749, -8.3232, 16.3244, 31.7470
0.1999, -0.3655, -0.8246, -17.7744, -0.8098, 48.6372
-0.0932, -0.3750, -0.9170, -22.5915, -17.2732, 54.8567
-0.6281, -0.3953, -0.9879, -5.1524, -54.5902, 12.7226
-0.8060, -0.4826, -0.9650, 10.5183, -36.2366, -25.0823
-0.3631, -0.4334, -0.8580, 10.7012, 19.3122, -41.1189
0.1706, -0.3636, -0.8483, 10.6402, 39.3732, -35.3872
0.5614, -0.3682, -0.7559, 2.5915, 29.9829, -5.2043
0.5528, -0.3999, -0.8256, -6.9817, 8.3366, 30.4665
0.1417, -0.4086, -0.8859, -12.8963, 0.6537, 44.3079
-0.1779, -0.3856, -1.0038, -10.6402, -25.8707, 44.0031
-0.7445, -0.4444, -1.0561, 8.1402, -62.6390, -7.3384
-0.7091, -0.4850, -0.9039, 15.2134, -3.1268, -35.6921
-0.0689, -0.3866, -0.8399, 16.6159, 55.2878, -37.9482
0.5891, -0.3462, -0.6829, 4.9695, 53.6415, -7.3384
0.6191, -0.3540, -0.7693, -7.8963, 9.0683, 25.2226
0.2236, -0.3767, -0.8461, -16.7378, -13.4927, 43.0884
-0.1273, -0.3862, -1.0314, -11.6159, -35.8098, 47.4787
-0.6783, -0.4271, -1.0324, 4.5427, -52.6390, 4.2470
-0.7199, -0.4863, -0.9667, 18.2012, -13.2488, -26.2409
-0.2071, -0.4490, -0.8420, 18.8720, 36.4463, -37.2165
0.3484, -0.3825, -0.7260, 9.9085, 44.9829, -23.6799
0.6483, -0.3691, -0.7220, -6.1890, 18.2756, 13.0274
0.2439, -0.4066, -0.8771, -14.1768, -19.4683, 28.6982
-0.0847, -0.4056, -0.9483, -13.8720, -18.3098, 38.3933
-0.5386, -0.4179, -1.0630, 2.4085, -36.7244, 9.0030
-0.6491, -0.4493, -0.9756, 16.7988, -32.7610, -25.6921
-0.3708, -0.4380, -0.8908, 23.3841, 6.3854, -45.0823
0.1453, -0.3620, -0.7666, 21.2500, 42.9098, -36.4848
0.4855, -0.4006, -0.7322, 9.6646, 31.9341, -8.1921
0.5422, -0.4312, -0.7601, -2.4085, 12.3000, 27.4177
0.2482, -0.4279, -0.8154, -14.7866, -7.0902, 45.2226
-0.2550, -0.3949, -1.0234, -4.6037, -45.5659, 35.3445
-0.8029, -0.5048, -0.9967, 9.9085, -58.9195, -11.6677
-0.6344, -0.5054, -0.9208, 18.6890, 8.4585, -32.5823
-0.0577, -0.4491, -0.8271, 20.8841, 47.6659, -38.6189
0.4980, -0.3797, -0.7175, 14.2988, 51.4463, -11.1189
0.5453, -0.4184, -0.7805, 3.0793, 8.0927, 13.8201
0.1754, -0.4690, -0.8153, -6.4939, -12.2732, 31.4421
-0.0943, -0.4368, -0.9397, -6.9817, -22.7000, 38.7591
-0.7420, -0.4615, -1.0330, 11.6159, -64.4073, -9.4116
-0.7659, -0.5630, -0.8922, 18.4451, -22.3951, -41.1799
-0.1737, -0.4772, -0.7984, 19.5427, 43.3976, -46.2409
0.3877, -0.4209, -0.7494, 14.9085, 29.1293, -31.7896
0.4912, -0.4319, -0.7388, 8.5061, 4.0073, -4.8384
0.4235, -0.4936, -0.7678, -1.8598, 7.7268, 32.2348
0.1296, -0.4560, -0.8430, -9.6646, 6.6902, 49.3079
-0.2331, -0.4962, -0.8984, -8.3841, -28.6146, 39.9177
-0.8145, -0.5203, -0.9502, 5.6402, -83.2488, -16.6067
-0.8128, -0.5588, -0.8757, 14.2988, -19.9561, -51.6067
-0.2121, -0.4910, -0.8123, 15.9451, 46.1415, -56.7896
0.4943, -0.3956, -0.7809, 11.1890, 49.2512, -32.2165
0.6943, -0.4491, -0.7523, 4.0549, 20.7756, 6.1372
0.3516, -0.5025, -0.8275, -4.7256, -4.8951, 34.1860
-0.0247, -0.4600, -0.8644, -9.6646, -11.7244, 45.8323
-0.5809, -0.4845, -0.9671, -1.4939, -60.6878, 13.6372
-1.0192, -0.5585, -0.9440, 10.7622, -62.0902, -44.2287
-0.5365, -0.5678, -0.8315, 12.4695, 33.7024, -58.3750
0.1678, -0.4500, -0.7286, 10.8841, 69.3122, -57.8872
0.7024, -0.3853, -0.7628, 9.6037, 46.2634, -18.7409
0.7205, -0.4476, -0.7350, 0.0305, 19.0073, 23.8811
0.2613, -0.4527, -0.7882, -9.0549, 0.7756, 44.7348
-0.0860, -0.4838, -0.8510, -14.1768, -13.6756, 55.8323
-0.7599, -0.5035, -0.9453, -3.8720, -75.8707, -1.1799
-1.0113, -0.5983, -0.9294, 9.9695, -40.9317, -51.4238
-0.3169, -0.5672, -0.8091, 13.2622, 54.4341, -57.5213
0.3937, -0.3875, -0.8060, 15.5793, 69.3122, -49.1067
0.7346, -0.4060, -0.7346, 15.0915, 38.0317, -10.6311
0.6555, -0.4902, -0.7319, 5.0915, 13.0317, 30.0396
0.1987, -0.4988, -0.7579, -7.2256, 0.8366, 43.2713
-0.0655, -0.5385, -0.8049, -13.5061, -14.7732, 50.5274
-0.6686, -0.5784, -0.9315, -3.3841, -64.1024, -0.0823
-0.8332, -0.5874, -0.9163, 7.1646, -27.2732, -44.3506
-0.2105, -0.5322, -0.8273, 10.2744, 36.4463, -50.3262
0.3495, -0.4789, -0.7335, 11.7988, 39.9220, -46.0579
0.6532, -0.4379, -0.7249, 6.5549, 28.4585, -8.6799
0.6339, -0.5231, -0.7399, 1.1280, 29.3732, 34.1250
0.2816, -0.4854, -0.7191, -10.6402, 9.0683, 48.6982
-0.1983, -0.4824, -0.9075, -7.6524, -61.0537, 35.9543
-1.0559, -0.5850, -0.8947, 7.1646, -86.9073, -36.2409
-0.6298, -0.6239, -0.8485, 11.0671, 17.2390, -46.5457
0.0896, -0.5296, -0.7297, 14.9085, 71.8732, -49.5335
0.6816, -0.4680, -0.7142, 10.4573, 43.7634, -24.3506
0.7342, -0.5100, -0.6899, 1.4939, 5.3488, 7.1128
0.3907, -0.5565, -0.7758, -8.2622, -3.8585, 30.4055
0.1662, -0.5408, -0.8625, -16.3720, -8.0049, 44.7957
-0.4392, -0.5852, -0.9509, -4.1159, -50.8707, 11.4421
-0.7420, -0.6751, -0.9034, 3.6890, -50.0780, -37.5213
-0.2763, -0.6195, -0.8018, 5.6402, 28.8854, -52.0335
0.2939, -0.5031, -0.7182, 5.7012, 53.7634, -47.2165
0.5441, -0.4303, -0.7542, 5.8232, 23.3366, -29.3506
0.5643, -0.4726, -0.7092, 2.1646, 6.5073, 1.6860
0.4178, -0.4996, -0.7339, -6.4329, 18.8854, 34.9787
0.2858, -0.5302, -0.7173, -18.3841, 12.9098, 49.9177
-0.2584, -0.5073, -0.9783, -9.0549, -53.4317, 24.7348
-0.8135, -0.6236, -0.8858, 1.3110, -70.4439, -32.5823
-0.4596, -0.5772, -0.8645, 7.2866, -2.9439, -51.6067
0.0726, -0.5303, -0.7469, 10.6402, 41.6293, -58.8018
0.5193, -0.4408, -0.7249, 10.4573, 51.3854, -32.0945
0.7458, -0.4134, -0.7872, 10.2134, 23.9463, -2.5213
0.6752, -0.5114, -0.6603, -0.3963, 28.5805, 44.3079
0.3334, -0.5034, -0.6850, -13.8720, 1.3854, 58.9421
-0.1918, -0.4960, -0.8680, -14.4207, -49.1634, 45.8933
-0.6920, -0.6700, -0.7925, -8.9329, -72.6390, -1.5457
-0.6494, -0.5603, -0.8841, 1.9207, -15.5049, -40.3872
-0.0188, -0.5499, -0.8343, 11.9207, 48.2146, -39.1067
0.3931, -0.4754, -0.7390, 16.3110, 38.5195, -32.7652
0.5812, -0.4808, -0.7568, 8.1402, 8.7634, -7.8872
0.5215, -0.5054, -0.7385, -3.5671, 8.8854, 21.0152
0.3293, -0.5150, -0.7432, -15.7622, 12.1780, 44.6128
-0.0914, -0.4871, -0.9456, -12.2256, -39.4073, 34.3689
-0.5802, -0.5717, -0.9469, -1.4939, -80.9317, -8.0091
-0.7210, -0.5844, -0.9398, 15.5793, -38.2488, -46.3628
-0.2297, -0.5568, -0.8475, 20.6402, 22.1171, -60.9360
0.3782, -0.4796, -0.7553, 16.9207, 48.3366, -43.5579
0.6725, -0.4886, -0.6663, 7.7744, 25.3488, -18.1921
0.7197, -0.5340, -0.6543, -10.7012, 16.3244, 21.3201
0.3516, -0.5258, -0.7092, -21.2500, 9.2512, 42.7835
0.0698, -0.5305, -0.7856, -27.2256, -20.9927, 50.4055
-0.5003, -0.5224, -1.0040, -10.5793, -70.6268, 10.5884
-0.9001, -0.5892, -0.9794, 12.7134, -64.5293, -50.6311
-0.3374, -0.6248, -0.8119, 19.5427, 28.5195, -59.0457
0.3781, -0.4868, -0.7268, 19.7256, 65.2268, -52.7652
0.7803, -0.4860, -0.6543, 12.9573, 40.5927, -19.8384
0.8277, -0.5424, -0.6085, -8.0183, 15.8366, 22.2348
0.4352, -0.5049, -0.6786, -22.5305, 8.7024, 46.7470
0.1302, -0.4802, -0.7842, -32.1037, -5.6878, 56.9909
-0.4422, -0.4765, -0.9597, -17.4695, -68.0659, 25.3445
-0.8197, -0.5839, -1.0157, 4.3598, -83.9195, -28.6799
-0.4990, -0.5956, -0.8337, 16.7988, -3.9805, -51.1799
0.0110, -0.5528, -0.7836, 19.6646, 36.7512, -60.4482
0.5638, -0.4598, -0.7266, 15.6402, 42.9707, -33.4969
0.7955, -0.5018, -0.6459, 0.7012, 24.0073, -1.7287
0.7312, -0.5272, -0.6856, -15.6402, 14.9220, 42.6006
0.3018, -0.4492, -0.7342, -28.5061, -4.2854, 56.4421
-0.1440, -0.4465, -0.9455, -24.6646, -63.9195, 47.2348
-0.8475, -0.5141, -1.0295, -1.6159, -99.9561, -9.8994
-0.8264, -0.6037, -0.9169, 14.7866, -29.5293, -49.8994
-0.1353, -0.5719, -0.7690, 17.9573, 56.1415, -49.7774
0.6219, -0.4795, -0.6705, 10.4573, 56.8122, -35.0823
0.8677, -0.5042, -0.5869, -4.0549, 30.5927, 7.3567
0.7269, -0.5272, -0.6923, -21.1890, 3.0927, 44.7348
0.3172, -0.4447, -0.7808, -33.0793, -12.5171, 62.6006
-0.3345, -0.3975, -0.9715, -22.5915, -56.1756, 46.2591
-0.9310, -0.4606, -1.0926, 3.5061, -111.9683, -13.0701
-0.8605, -0.6609, -0.8840, 18.8720, -12.2732, -49.1677
-0.1038, -0.5670, -0.7527, 20.2744, 71.5073, -50.3872
0.6584, -0.4680, -0.6718, 15.0305, 77.4220, -27.5823
0.8407, -0.5140, -0.6279, 3.1402, 29.7390, 8.7591
0.6628, -0.5371, -0.6892, -11.9207, 6.7512, 43.0274
0.2297, -0.4678, -0.7523, -25.5183, -3.1878, 58.0884
-0.1668, -0.4514, -0.9236, -23.1402, -53.1878, 47.1738
-0.8982, -0.4393, -1.0629, 3.7500, -99.2244, -14.2287
-0.7862, -0.6196, -0.8612, 16.5549, -15.8707, -42.9482
-0.0820, -0.5401, -0.7946, 17.0427, 58.6415, -43.5579
0.5939, -0.4760, -0.6497, 8.0183, 61.5683, -28.7409
0.7733, -0.5221, -0.6671, -1.9207, 19.9220, 9.7957
0.5776, -0.5444, -0.7507, -11.7988, 6.0805, 44.6128
0.1982, -0.4835, -0.7761, -23.0793, -2.8220, 56.5640
-0.2491, -0.4420, -0.9908, -15.1524, -52.5171, 42.8445
-0.9505, -0.5111, -1.0375, 10.2744, -90.5049, -20.9360
-0.6691, -0.6462, -0.8154, 15.3963, 6.1415, -41.5457
0.0187, -0.5166, -0.7322, 16.6159, 69.9220, -46.4238
0.6150, -0.4937, -0.6294, 6.2500, 55.9585, -24.0457
0.7408, -0.5226, -0.6601, -5.5793, 18.9463, 12.1128
0.4757, -0.5343, -0.7775, -12.2256, 6.0805, 40.5274
0.1674, -0.4923, -0.7980, -20.2134, 2.6049, 54.1860
-0.2077, -0.4704, -1.0085, -11.3720, -50.7488, 38.3323
-0.9387, -0.5201, -1.0264, 13.2012, -89.5293, -25.2652
-0.6337, -0.6397, -0.8246, 17.5915, -1.3585, -47.3384
0.0083, -0.5244, -0.7720, 17.7134, 62.3610, -50.5701
0.6403, -0.4909, -0.6023, 6.2500, 58.0317, -24.4726
0.7688, -0.5117, -0.6618, -5.5183, 19.3122, 14.9787
0.4250, -0.5245, -0.7585, -13.9329, 3.1537, 42.1128
0.1786, -0.5087, -0.7307, -23.7500, 4.5561, 59.6738
-0.2433, -0.4508, -0.9523, -13.8110, -48.0049, 42.4787
-0.7831, -0.4715, -1.0000, 4.5427, -80.4439, -12.0335
-0.7240, -0.6108, -0.8629, 16.8598, -16.6634, -43.3140
-0.0824, -0.5413, -0.8378, 20.3963, 43.0927, -49.7774
0.5878, -0.5149, -0.6238, 9.6646, 68.8244, -22.2774
0.7056, -0.5437, -0.7155, -0.2744, 20.1049, 4.6128
0.4650, -0.5708, -0.7596, -10.3354, 5.4707, 34.7957
0.2194, -0.4636, -0.8032, -18.2622, -5.6878, 46.3201
-0.2892, -0.4821, -0.9938, -4.6646, -50.8098, 29.6738
-0.8333, -0.5119, -0.9969, 12.4085, -64.0415, -22.0945
-0.5089, -0.6213, -0.8038, 17.0427, 11.3244, -36.2409
0.1141, -0.5026, -0.7328, 18.0183, 55.9585, -39.1067
0.6658, -0.4965, -0.5603, 3.0793, 53.6415, -6.4848
0.6788, -0.5299, -0.6687, -9.1768, 11.9951, 25.7104
0.2786, -0.5592, -0.7499, -18.4451, -4.4073, 42.7226
0.0478, -0.5186, -0.9090, -19.0549, -19.1024, 51.6860
-0.5301, -0.4867, -1.0238, 0.3354, -59.9561, 11.4421
-0.8057, -0.5943, -0.9604, 18.8110, -45.2000, -28.4360
-0.3168, -0.6024, -0.7968, 21.0061, 28.0317, -42.5823
0.2626, -0.5211, -0.6900, 16.7988, 58.6415, -40.3872
0.6666, -0.5681, -0.5757, 3.2622, 45.7756, -3.9238
0.6366, -0.5334, -0.6877, -10.7622, 13.5195, 27.0518
0.2549, -0.5584, -0.7070, -22.5305, -3.4317, 43.0884
-0.0030, -0.4857, -0.9049, -19.1159, -30.3829, 46.0152
-0.6887, -0.4865, -1.0040, 1.9207, -75.8707, -4.0457
-0.8176, -0.6073, -0.9150, 18.1402, -37.0902, -41.4238
-0.2031, -0.5752, -0.7640, 20.7012, 44.4341, -47.2774
0.5293, -0.4807, -0.6188, 11.3720, 76.1415, -22.2774
0.6849, -0.5419, -0.6552, 0.2744, 24.6171, 0.7713
0.5137, -0.5673, -0.6977, -12.8354, 5.3488, 34.1250
0.2134, -0.5107, -0.7519, -22.5305, -6.4195, 45.8933
-0.1981, -0.4801, -0.9778, -10.7622, -47.6390, 34.1250
-0.7992, -0.5080, -0.9632, 9.4817, -76.1756, -18.3140
-0.6328, -0.6173, -0.8411, 18.6280, -9.4073, -40.6311
-0.0110, -0.5741, -0.7270, 19.4207, 44.9829, -45.6921
0.6360, -0.5508, -0.6168, 8.6890, 60.6537, -12.5823
0.7617, -0.5565, -0.6647, -4.5427, 19.2512, 20.0396
0.4114, -0.6034, -0.7038, -16.9207, 0.8366, 46.9909
0.1006, -0.4945, -0.8327, -22.7134, -25.3220, 53.3323
-0.6816, -0.4582, -0.9913, -2.8963, -71.3585, 8.2104
-0.8516, -0.6138, -0.9333, 13.2012, -49.4683, -29.5945
-0.2894, -0.6060, -0.7665, 16.7988, 37.8488, -41.1799
0.3580, -0.5310, -0.6512, 12.2256, 63.7634, -30.2652
0.6743, -0.5796, -0.6142, 0.9451, 34.1902, -0.2652
0.5874, -0.5701, -0.6910, -11.9207, 4.8000, 29.7348
0.2602, -0.5183, -0.7737, -21.6159, -10.2610, 45.4665
-0.2543, -0.4918, -0.9786, -11.1890, -36.6024, 32.5396
-0.7686, -0.4818, -1.0065, 6.1280, -63.4927, -14.5335
-0.6584, -0.5950, -0.8616, 19.2988, -11.5415, -42.0945
-0.0973, -0.5947, -0.7391, 22.2866, 32.3610, -50.6921
0.4515, -0.5221, -0.6448, 13.1402, 47.8488, -29.9604
0.6541, -0.5551, -0.6766, 2.0427, 16.8122, -3.4360
0.5730, -0.5918, -0.6769, -10.6402, 8.8244, 36.2591
0.2306, -0.5219, -0.7366, -21.3110, 3.5195, 50.0396
-0.1915, -0.4913, -0.9352, -16.1890, -38.6146, 38.6372
-0.8035, -0.5257, -0.9630, 4.5427, -80.0780, -14.3506
-0.7305, -0.6177, -0.8618, 18.0793, -21.2976, -43.8018
-0.1169, -0.6278, -0.6935, 20.5183, 47.4220, -48.4969
0.5482, -0.4953, -0.6682, 12.2866, 58.5195, -25.8140
0.6794, -0.5660, -0.6841, 3.8720, 17.3610, 1.6250
0.5502, -0.6054, -0.6635, -9.5427, 10.2878, 38.3323
0.2426, -0.5084, -0.7457, -20.8841, 2.7878, 52.3567
-0.2725, -0.4786, -0.9540, -13.6280, -37.5171, 37.8445
-0.9041, -0.5502, -0.9645, 4.6037, -82.5780, -18.8628
-0.6982, -0.6336, -0.8293, 14.7256, -8.3707, -46.5457
-0.0368, -0.6012, -0.7189, 18.1402, 47.0561, -52.5823
0.5349, -0.5015, -0.7184, 15.5183, 48.6415, -32.3384
0.6434, -0.6021, -0.6646, 7.3476, 20.4707, 0.2226
0.6199, -0.5871, -0.6580, -7.9573, 16.2024, 38.5762
0.2560, -0.5450, -0.6652, -19.9695, 1.9341, 54.5518
-0.2438, -0.4894, -0.8480, -17.2866, -47.2732, 37.4177
-0.8691, -0.5592, -0.8918, -0.0305, -87.0293, -10.8140
-0.7305, -0.6037, -0.8183, 9.1159, -17.5171, -43.0701
-0.0217, -0.5856, -0.7430, 10.7622, 43.8854, -43.0091
0.5748, -0.5343, -0.6621, 6.8598, 51.8122, -20.6921
0.7735, -0.5925, -0.6690, -2.7134, 24.1293, 24.1860
0.4004, -0.5945, -0.7252, -11.6768, -1.3585, 44.7957
-0.0012, -0.5444, -0.8080, -18.0183, -12.9439, 49.6128
-0.4716, -0.5153, -0.8945, -8.9939, -43.1268, 22.2348
-0.8090, -0.5711, -0.9457, 5.6402, -58.0659, -23.2530
-0.5084, -0.6145, -0.7850, 11.6159, 4.8610, -47.2774
0.0745, -0.6051, -0.7520, 14.8476, 43.3366, -47.2774
0.5943, -0.5416, -0.6848, 9.6646, 44.2512, -21.7896
0.7971, -0.5816, -0.5985, -5.2744, 27.9098, 27.1738
0.3722, -0.5771, -0.7291, -16.0671, 3.5805, 44.9177
0.0168, -0.5307, -0.7957, -23.3232, -5.8098, 51.8689
-0.4714, -0.5034, -0.9078, -13.8720, -42.9439, 25.3445
-0.7739, -0.5660, -0.9277, 0.3354, -67.1512, -22.8872
-0.5646, -0.6264, -0.8369, 12.7134, -8.9805, -52.0945
0.0561, -0.6068, -0.6970, 12.0427, 39.2512, -53.0701
0.5172, -0.5150, -0.7400, 8.8110, 39.3732, -31.6677
0.6016, -0.5397, -0.7398, 4.0549, 23.5805, 1.1372
0.4854, -0.6121, -0.7015, -7.0427, 35.2268, 37.4177
0.2206, -0.5241, -0.6985, -21.2500, 12.7268, 45.8323
-0.1640, -0.5238, -0.8904, -19.3598, -62.0293, 33.6372
-1.0155, -0.5302, -0.9658, 4.7866, -100.3220, -34.4116
-0.6753, -0.6198, -0.8517, 11.8598, -14.5293, -54.2896
0.0854, -0.5838, -0.6845, 14.1768, 74.4951, -45.8140
0.7460, -0.5000, -0.6743, 9.1159, 79.3732, -12.1555
0.7651, -0.5401, -0.7316, 1.3110, 20.4098, 19.0030
0.3640, -0.5819, -0.6448, -10.9451, 6.3854, 44.2470
0.0212, -0.5515, -0.6665, -27.3476, -20.9317, 44.6738
-0.5964, -0.5089, -0.9572, -16.1890, -94.8951, 4.4909
-0.9531, -0.5824, -0.9466, 4.6037, -61.1756, -49.1067
-0.2075, -0.6020, -0.8062, 10.5183, 44.3122, -42.0335
0.3903, -0.5321, -0.7271, 16.7988, 77.9707, -31.3628
0.7844, -0.5419, -0.6749, 11.1280, 53.5805, 6.6250
0.6010, -0.6015, -0.6575, -0.5183, 15.9585, 38.0884
0.1846, -0.5347, -0.7072, -14.9695, -15.5049, 42.8445
-0.1968, -0.5786, -0.7882, -19.4817, -50.4439, 31.1982
-0.8509, -0.5615, -0.9872, -1.1280, -74.0415, -22.3384
-0.5795, -0.5620, -0.8466, 7.8963, -19.5293, -46.1189
-0.0120, -0.5960, -0.7512, 12.3476, 32.7268, -45.9969
0.4824, -0.5026, -0.7169, 11.4939, 46.3244, -29.3506
0.6588, -0.5488, -0.7142, 5.7622, 18.7634, 5.0396
0.4691, -0.5724, -0.6772, -3.3841, 11.9341, 38.3323
0.1562, -0.5393, -0.6882, -17.4085, 1.5073, 47.4177
-0.1206, -0.5759, -0.7787, -20.9451, -28.6756, 39.4909
-0.7528, -0.5643, -0.9642, -4.4817, -68.2488, -10.2652
-0.6228, -0.5548, -0.8860, 5.3963, -27.1512, -41.7287
-0.1069, -0.6105, -0.8159, 13.5671, 25.2878, -45.1433
0.3074, -0.5325, -0.7652, 15.8232, 40.5317, -40.1433
0.5773, -0.5223, -0.7188, 10.8841, 30.6537, -7.7043
0.5537, -0.5566, -0.6839, 1.9207, 21.7512, 22.6616
0.2836, -0.5491, -0.6650, -13.3232, 21.5683, 38.0274
0.1525, -0.5990, -0.7106, -28.2012, -5.6878, 48.3933
-0.4356, -0.5077, -0.9089, -16.6768, -57.7610, 15.2226
-0.6765, -0.5852, -0.9413, -4.4207, -65.5049, -25.8750
-0.4937, -0.6203, -0.8682, 10.7012, -7.2732, -45.0823
0.0604, -0.5888, -0.7819, 13.8110, 40.4707, -47.0335
0.5077, -0.4927, -0.7297, 14.5427, 45.4707, -27.2165
0.6376, -0.5221, -0.6519, 5.8841, 18.7024, 1.8079
0.4692, -0.5579, -0.6620, -7.8963, 7.7268, 27.7226
0.1567, -0.5411, -0.6649, -21.0671, 0.7146, 38.6372
-0.1125, -0.5587, -0.8569, -20.3354, -44.5293, 36.0152
-0.8164, -0.5309, -1.0516, 6.0061, -91.8463, -25.9360
-0.6550, -0.6395, -0.8441, 16.1890, -14.8341, -50.1433
0.0190, -0.5928, -0.7446, 17.2866, 60.4707, -46.4238
0.6189, -0.4874, -0.7104, 13.9939, 61.9341, -22.1555
0.7057, -0.5018, -0.6782, 6.9817, 14.8610, 7.4787
0.4463, -0.5741, -0.6107, -8.9939, 13.7024, 38.1494
0.1489, -0.5590, -0.6595, -24.6037, 13.0317, 49.5518
-0.0911, -0.5484, -0.8447, -27.0427, -37.8829, 41.2591
-0.7041, -0.5610, -1.0124, -3.0793, -80.8098, -7.8872
-0.6671, -0.6417, -0.8849, 13.6280, -20.5659, -43.6799
-0.0277, -0.5913, -0.7568, 15.8841, 53.8854, -38.3750
0.5176, -0.5095, -0.6884, 12.2256, 44.4951, -26.8506
0.5985, -0.5159, -0.6887, 6.0061, 0.2268, 0.5884
0.4406, -0.5644, -0.6525, -7.5915, 0.5317, 27.8445
0.2265, -0.5474, -0.6833, -20.0915, 13.3976, 46.5640
0.0583, -0.5841, -0.7844, -27.8963, -7.9439, 53.3323
-0.5728, -0.5098, -1.0472, -6.4329, -67.9439, 10.1006
-0.7859, -0.6339, -0.9888, 11.6768, -56.4805, -35.1433
-0.3312, -0.6047, -0.8237, 17.4085, 27.9707, -47.0945
0.2453, -0.5455, -0.7442, 16.3110, 49.8000, -45.7530
0.5972, -0.5208, -0.6326, 8.3232, 38.2146, -11.9726
0.6507, -0.5115, -0.6313, -4.1159, 9.9220, 14.4909
0.3653, -0.5175, -0.6785, -14.5427, 4.2512, 42.7226
0.1242, -0.5402, -0.6703, -25.2134, 1.6902, 55.7713
-0.3027, -0.5455, -0.9173, -15.7622, -44.2244, 41.1982
-0.7577, -0.5388, -1.0210, 4.2988, -70.6878, -12.0335
-0.6856, -0.6388, -0.8495, 17.2256, -12.5171, -44.7165
-0.0274, -0.6159, -0.7839, 16.7378, 51.8732, -44.4116
0.5857, -0.5330, -0.6401, 8.8110, 65.4098, -22.7652
0.8284, -0.5659, -0.6207, -3.6890, 35.5927, 20.5274
0.4936, -0.5756, -0.6945, -16.2500, 0.5927, 41.6860
0.0708, -0.5017, -0.7498, -24.3598, -20.8098, 48.6372
-0.4431, -0.4926, -0.9756, -10.6402, -58.3707, 27.0518
-0.8594, -0.5644, -1.0098, 11.2500, -61.0537, -22.2774
-0.4385, -0.6000, -0.8037, 18.0183, 21.6902, -38.3140
0.1233, -0.5451, -0.7502, 19.2378, 48.8244, -42.2165
0.6184, -0.5362, -0.6105, 6.9207, 37.1780, -15.1433
0.7142, -0.5561, -0.5907, -8.5671, 12.1780, 24.0030
0.3198, -0.5646, -0.7097, -20.3963, -4.7732, 45.3445
0.0260, -0.5379, -0.8383, -25.2744, -14.7732, 53.5152
-0.5753, -0.4787, -1.0395, -3.2012, -70.0171, 17.6006
-0.9095, -0.6140, -0.9633, 15.8232, -52.0902, -32.6433
-0.3909, -0.6405, -0.8174, 20.7012, 38.3366, -42.3994
0.3111, -0.5394, -0.7078, 19.0549, 78.5805, -32.0335
0.7309, -0.5673, -0.5784, 4.9695, 49.8000, -2.0945
0.6697, -0.5875, -0.6240, -12.0427, 12.9098, 31.6250
0.2272, -0.5139, -0.7079, -23.5061, -9.2244, 42.4787
-0.1760, -0.4846, -0.9212, -19.4207, -50.0780, 35.6494
-0.8057, -0.5247, -0.9928, 3.9939, -71.3585, -9.9604
-0.7061, -0.6271, -0.8441, 17.4085, -5.3829, -35.2043
-0.0103, -0.5795, -0.7363, 19.2988, 51.5683, -40.1433
0.5840, -0.5527, -0.5619, 8.3232, 57.4220, -15.3872
0.6904, -0.5691, -0.6234, -6.3110, 11.8732, 13.9421
0.3909, -0.5908, -0.6581, -19.7256, -4.6512, 40.8933
0.1300, -0.4788, -0.8431, -28.0183, -22.3341, 49.6738
-0.5766, -0.4945, -1.0257, -4.0549, -65.2000, 15.4055
-0.8287, -0.5981, -0.9605, 13.3232, -58.0659, -26.7287
-0.3937, -0.6494, -0.7984, 20.3963, 26.0805, -39.2287
0.3053, -0.5576, -0.6832, 18.2012, 58.9463, -30.2652
0.7435, -0.6031, -0.5572, -0.2744, 50.8366, 9.3079
0.5809, -0.6033, -0.6742, -14.9695, 5.6537, 34.4909
0.1529, -0.4959, -0.7859, -24.7866, -25.3829, 41.2591
-0.3883, -0.4752, -1.0214, -7.7134, -56.6024, 23.6372
-0.8793, -0.5542, -0.9474, 11.0061, -58.9195, -25.0213
-0.4768, -0.6499, -0.8130, 17.8963, 25.9585, -33.6799
0.2095, -0.5415, -0.7036, 19.5427, 56.8732, -33.4360
0.6753, -0.5788, -0.5482, 5.4573, 47.3610, 2.4177
0.6201, -0.6104, -0.6227, -10.8841, 9.1293, 29.9177
0.2948, -0.5404, -0.7493, -23.9329, -22.4561, 46.9909
-0.3063, -0.5003, -0.9603, -13.2012, -41.3585, 34.0031
-0.8383, -0.5354, -0.9931, 5.3354, -74.4683, -16.1799
-0.7391, -0.6680, -0.8663, 20.4573, -8.0659, -47.7652
-0.1047, -0.6237, -0.7455, 24.1768, 43.0317, -59.5335
0.5141, -0.5875, -0.6649, 15.8841, 53.5805, -33.3140
0.6316, -0.5845, -0.6816, 8.0793, 27.0561, -3.9848
0.6068, -0.6175, -0.6220, -9.8476, 21.9951, 38.1494
0.2617, -0.5113, -0.7148, -23.2622, 2.1171, 53.6372
-0.2875, -0.4813, -0.8716, -18.0793, -54.4073, 29.6128
-0.9227, -0.5867, -0.8972, 3.5061, -76.7854, -18.3140
-0.5089, -0.6013, -0.7570, 10.5183, 26.4463, -31.1799
0.1528, -0.5676, -0.6672, 10.6402, 59.2512, -28.5579
0.4614, -0.5798, -0.6391, 0.7012, 22.3610, -16.5457
0.4803, -0.5988, -0.6753, -9.2378, -5.1390, 7.5396
0.3533, -0.5791, -0.7455, -16.3110, -0.3829, 33.8201
0.1460, -0.5603, -0.7952, -19.1768, 5.1659, 47.6616
-0.2938, -0.5267, -0.8965, -11.2500, -25.6878, 32.9055
-0.6803, -0.5384, -0.9871, 4.2988, -69.6512, -11.7287
-0.7570, -0.6234, -0.8803, 20.9451, -27.7000, -50.7530
-0.1574, -0.6360, -0.6982, 19.7256, 40.7146, -54.3506
0.4728, -0.5293, -0.6885, 13.3232, 56.1415, -33.8628
0.6713, -0.5570, -0.6360, 3.3841, 31.6902, 0.8933
0.5781, -0.6129, -0.6390, -12.9573, 10.1659, 31.9909
0.2839, -0.4948, -0.6916, -25.9451, -15.6878, 43.9421
-0.1422, -0.5216, -0.8242, -23.8110, -27.5780, 46.0152
-0.7838, -0.4984, -0.8956, -10.0305, -54.9561, -2.0945
-0.6856, -0.6183, -0.9190, 6.9817, -30.1390, -29.9604
-0.2410, -0.6179, -0.8044, 16.1280, 9.0683, -47.9482
0.2094, -0.5797, -0.7726, 16.7988, 22.4829, -46.1189
0.5413, -0.5576, -0.6763, 10.7622, 28.7634, -9.5335
0.5552, -0.5744, -0.6996, -0.0915, 12.5439, 15.5884
0.2739, -0.6057, -0.6810, -12.1646, 4.6780, 36.3201
0.0184, -0.5208, -0.7849, -19.0549, -13.7366, 40.7713
-0.5324, -0.5827, -0.9589, -7.1646, -60.5659, 6.5640
-0.8397, -0.5733, -0.9291, 11.3110, -49.2244, -41.2409
-0.3248, -0.6680, -0.7802, 16.7988, 28.2756, -44.6555
0.3219, -0.5291, -0.6846, 16.5549, 48.8854, -40.6921
0.5967, -0.5429, -0.6549, 8.2622, 28.5805, -11.3018
0.5454, -0.5660, -0.6768, -3.0793, 3.7634, 14.5518
0.3138, -0.5636, -0.6613, -14.8476, 13.7024, 42.9055
0.0474, -0.5105, -0.7187, -26.3720, 2.6049, 47.6616
-0.3798, -0.5506, -0.9520, -16.0671, -71.6024, 23.0884
-0.9729, -0.5997, -0.9407, 7.7744, -69.5902, -39.2287
-0.3829, -0.6445, -0.7964, 12.6524, 24.9829, -39.9604
0.2049, -0.5580, -0.7313, 16.1890, 48.5805, -41.6067
0.4826, -0.5338, -0.7114, 12.0427, 19.0683, -20.3872
0.4750, -0.5611, -0.7245, 4.4817, -8.6146, 2.8445
0.3728, -0.5745, -0.6513, -7.2256, 11.2024, 34.3079
0.1703, -0.5536, -0.6613, -20.7622, 14.1293, 49.7957
-0.1596, -0.5280, -0.8423, -22.2256, -34.2854, 38.6982
-0.8641, -0.6054, -0.9576, 0.2134, -82.2122, -16.9726
-0.6629, -0.6115, -0.8620, 10.7012, -7.4561, -44.8994
0.0143, -0.6089, -0.7327, 13.9329, 62.6659, -38.7409
0.5737, -0.5242, -0.6948, 9.9085, 51.3854, -15.7530
0.7217, -0.5767, -0.6595, 0.0915, 21.5073, 19.9787
0.4339, -0.5715, -0.6471, -13.8720, 0.4098, 43.0274
0.0434, -0.5022, -0.7364, -26.6159, -20.0780, 51.5640
-0.5272, -0.5359, -0.9495, -16.9817, -66.8463, 23.7591
-0.8480, -0.5773, -0.9084, -1.4939, -48.9195, -21.8506
-0.3291, -0.6071, -0.7918, 6.0671, 34.3122, -27.4604
0.2205, -0.5554, -0.7659, 8.4451, 42.4829, -26.3628
0.4250, -0.5530, -0.7498, 7.2866, 10.6537, -9.4726
0.3434, -0.5954, -0.7195, -1.0061, -0.2610, 11.0762
0.2498, -0.5969, -0.7435, -10.4573, 6.8122, 29.8567
0.0505, -0.5770, -0.8016, -14.9695, 6.0195, 35.5274
-0.4382, -0.5398, -0.9376, -2.4695, -43.0049, 5.6494
-0.7207, -0.5813, -0.9261, 11.4329, -44.1024, -35.1433
-0.3766, -0.6225, -0.7948, 18.4451, 13.4585, -50.9360
0.1739, -0.5456, -0.7189, 19.2988, 47.9707, -45.3262
0.5665, -0.5241, -0.6408, 12.2256, 42.7878, -13.1311
0.6336, -0.5348, -0.6571, 2.2256, 23.7024, 21.4421
0.3254, -0.5488, -0.6312, -13.5671, 16.8732, 43.7591
0.0378, -0.4920, -0.7168, -26.3720, -10.5659, 47.9055
-0.3915, -0.5489, -0.8849, -17.7134, -56.4195, 27.7226
-0.8567, -0.5656, -0.9507, 1.4939, -53.7976, -24.1067
-0.4093, -0.6056, -0.8308, 8.2622, 14.9220, -29.1067
0.0574, -0.5871, -0.7670, 13.5671, 27.3610, -38.1311
0.2993, -0.5567, -0.7484, 13.3841, 11.9341, -30.5701
0.4524, -0.5491, -0.7145, 6.9817, 10.1659, -2.3994
0.4865, -0.5784, -0.6763, -3.6280, 21.6902, 27.4787
0.2432, -0.5350, -0.6711, -16.1280, 14.6780, 45.5884
0.0012, -0.5131, -0.8200, -21.9207, -9.4683, 50.7104
-0.5982, -0.5794, -0.9155, -8.3841, -55.5659, 11.4421
-0.7284, -0.6044, -0.9160, 5.3354, -34.7732, -26.3018
-0.2813, -0.6271, -0.7910, 9.7256, 29.6780, -36.1189
0.1579, -0.5642, -0.8042, 13.9939, 35.4707, -36.8506
0.3609, -0.5385, -0.7479, 10.7012, 21.3244, -22.2165
0.4283, -0.5707, -0.6747, 1.0061, 8.8854, -1.9116
0.3447, -0.5767, -0.7157, -9.8476, 13.2146, 22.3567
0.1644, -0.5479, -0.7188, -17.9573, 11.6293, 35.6494
-0.1531, -0.5893, -0.8762, -13.8720, -33.7976, 26.4421
-0.6283, -0.6094, -0.9239, 1.9817, -53.6146, -16.7287
-0.5711, -0.6112, -0.8785, 13.2622, -7.9439, -40.8750
-0.0960, -0.5941, -0.7769, 17.1037, 26.7512, -50.3872
0.3284, -0.5409, -0.6844, 15.8232, 30.6537, -40.5701
0.4822, -0.5246, -0.6788, 12.1646, 5.1049, -20.2652
0.5234, -0.5035, -0.6409, 2.7744, 7.3610, 15.4665
0.3437, -0.5247, -0.6211, -12.1646, 23.5805, 44.0640
0.1346, -0.5676, -0.6359, -27.8963, 3.5195, 55.8933
-0.3790, -0.5497, -0.9694, -15.8232, -65.6268, 26.4421
-0.8864, -0.6387, -0.9747, 4.6646, -72.8829, -30.2043
-0.4896, -0.6614, -0.8339, 11.6159, 14.2512, -43.8018
0.1276, -0.5892, -0.7669, 15.0305, 49.2512, -45.6921
0.5698, -0.5075, -0.7298, 15.3963, 27.6659, -22.2165
0.5896, -0.5299, -0.6739, 8.3841, -6.5415, 1.9299
0.4040, -0.5536, -0.6326, -5.6402, 5.7756, 34.8567
0.1042, -0.5384, -0.6647, -21.1280, 13.9463, 48.8201
-0.0861, -0.6079, -0.7825, -27.5305, -20.0171, 47.6616
-0.7138, -0.5366, -1.0347, -5.0305, -66.7244, -5.0213
-0.7122, -0.6257, -0.9297, 10.7622, -33.4927, -43.8628
-0.1564, -0.6182, -0.7720, 13.3841, 38.2146, -44.7165
0.3915, -0.5260, -0.7418, 11.4329, 44.3122, -35.5701
0.6067, -0.5264, -0.6712, 5.8841, 19.0683, -5.5091
0.5684, -0.5418, -0.6494, -6.7378, 8.3976, 25.5274
0.2120, -0.5371, -0.6855, -19.6646, 6.0805, 42.4177
-0.0238, -0.5542, -0.7980, -26.9817, -9.4683, 51.0152
-0.5709, -0.5221, -1.0083, -7.1037, -56.7244, 15.1006
-0.8276, -0.6130, -0.9623, 13.2012, -52.0293, -37.9482
-0.3305, -0.6450, -0.7639, 17.7134, 29.2512, -45.2043
0.2764, -0.5562, -0.7306, 16.7988, 48.0927, -43.6799
0.7197, -0.5539, -0.5981, 7.4695, 41.4463, -3.0091
0.6939, -0.5430, -0.6069, -8.3232, 15.2878, 28.3933
0.2551, -0.4975, -0.6822, -21.4939, -0.8098, 46.3811
-0.0216, -0.5426, -0.7449, -31.0671, -16.4195, 55.5884
-0.6290, -0.4885, -1.0002, -8.6280, -61.5415, 17.6006
-0.8390, -0.5954, -0.9735, 12.3476, -49.1634, -27.2165
-0.2856, -0.5988, -0.7671, 15.2134, 36.9951, -34.8994
0.3929, -0.5673, -0.6885, 10.9451, 70.2268, -19.6555
0.7687, -0.5762, -0.6337, -1.6159, 43.8854, 17.6006
0.5353, -0.5945, -0.6797, -14.8476, 6.4463, 39.8567
0.1155, -0.5065, -0.8301, -20.9451, -24.8341, 47.1738
-0.5759, -0.4853, -1.0143, -2.5915, -56.4805, 18.3933
-0.8128, -0.5524, -0.9664, 14.0549, -36.2366, -19.5945
-0.3727, -0.6154, -0.7611, 18.7500, 30.6537, -31.3018
0.1985, -0.5537, -0.6979, 18.1402, 46.6293, -32.8262
0.5299, -0.5645, -0.5883, 3.4451, 28.0927, -7.5213
0.5036, -0.5764, -0.6564, -9.9695, 4.3732, 20.3445
0.2535, -0.5640, -0.6980, -21.5549, -1.2976, 36.1982
0.0642, -0.5752, -0.8295, -25.3354, -8.1878, 46.6860
-0.4567, -0.5744, -0.9227, -13.6890, -36.5415, 18.2104
-0.7006, -0.5909, -1.0190, 2.1646, -50.6268, -24.2287
-0.4881, -0.6593, -0.8571, 11.9817, 3.8854, -47.3384
0.0184, -0.5552, -0.8197, 18.4451, 42.9098, -50.6921
0.4891, -0.5270, -0.6503, 13.4451, 58.5195, -24.7774
0.6753, -0.5424, -0.6665, 2.4085, 23.5195, 3.5152
0.4706, -0.5522, -0.6448, -8.6280, 13.4585, 32.6006
0.2143, -0.5038, -0.6944, -20.7012, -2.2732, 45.7713
-0.2507, -0.5205, -0.9186, -12.5915, -36.9683, 33.0274
-0.7438, -0.5346, -0.9213, 2.5305, -56.1756, -15.0213
-0.5398, -0.6282, -0.8179, 14.6037, -2.3341, -30.3872
-0.0629, -0.5789, -0.7444, 16.8598, 26.7512, -43.2530
0.4339, -0.5421, -0.6542, 9.6646, 38.2146, -24.5335
0.6410, -0.5670, -0.6382, -2.1646, 17.4220, 4.5518
0.4867, -0.5856, -0.7007, -12.2866, 5.8366, 30.7104
0.1894, -0.5210, -0.7786, -20.3963, -3.1268, 44.4299
-0.3156, -0.5375, -0.9702, -6.7988, -39.2244, 28.8811
-0.7448, -0.5123, -0.9833, 8.0183, -59.4073, -18.5579
-0.5840, -0.6592, -0.8315, 19.5427, -2.1512, -43.1921
0.0123, -0.5804, -0.7260, 21.0061, 48.3366, -46.6067
0.6041, -0.5579, -0.5862, 9.3598, 60.6537, -17.3994
0.7447, -0.5688, -0.6260, -5.7622, 24.1902, 16.6860
0.3887, -0.5411, -0.6905, -18.0183, 0.5927, 38.2104
0.1183, -0.4982, -0.7653, -26.6159, -17.5171, 49.9787
-0.5321, -0.5045, -1.0165, -6.8598, -64.2244, 18.6982
-0.8643, -0.5834, -0.9864, 12.9573, -54.5293, -26.7896
-0.4207, -0.6341, -0.7998, 21.3720, 22.1780, -43.8628
0.2457, -0.5486, -0.7001, 21.1890, 55.4707, -40.4482
0.6329, -0.5969, -0.6132, 10.5183, 38.1537, -15.0213
0.6200, -0.6057, -0.6435, -4.0549, 7.9707, 15.1006
0.3761, -0.5712, -0.7115, -15.0915, 2.5439, 38.8811
0.1314, -0.5120, -0.7697, -19.9695, -8.9805, 47.6006
-0.4814, -0.5303, -0.9494, -3.0793, -60.9927, 17.8445
-0.8250, -0.5860, -0.9112, 13.8110, -51.1756, -29.2287
-0.3519, -0.6416, -0.7652, 19.7866, 27.3610, -40.4482
0.2410, -0.5489, -0.6816, 19.7866, 55.6537, -36.4848
0.5698, -0.5527, -0.6442, 10.8841, 27.3000, -16.4848
0.5622, -0.6269, -0.6334, -1.7378, 6.0805, 11.5030
0.3884, -0.5583, -0.6843, -14.0549, 8.0317, 36.3201
0.1608, -0.5274, -0.7311, -22.1037, -6.5415, 46.6860
-0.2879, -0.5565, -0.9672, -8.8720, -62.4561, 29.9787
-0.9227, -0.5650, -0.9014, 12.4085, -68.6756, -31.3628
-0.5056, -0.6830, -0.8032, 17.0427, 8.5805, -42.2774
0.1393, -0.5996, -0.7158, 20.8232, 47.8488, -44.7165
0.5796, -0.5985, -0.6243, 13.0793, 37.1780, -18.9848
0.6366, -0.5866, -0.6864, 2.4695, 8.8244, 10.3445
0.4615, -0.6201, -0.6100, -12.5915, 9.2512, 39.6128
0.1601, -0.5218, -0.7086, -25.5183, -0.7488, 52.1738
-0.2427, -0.5178, -0.8384, -22.7134, -26.0537, 41.9299
-0.7112, -0.5589, -0.9158, -9.2988, -50.0171, -2.0945
-0.5827, -0.5497, -0.8845, 5.8232, -17.7000, -29.5335
-0.1632, -0.6093, -0.7812, 13.7500, 16.7512, -41.3628
0.2306, -0.5818, -0.7680, 14.2378, 24.9220, -34.8994
0.5412, -0.5858, -0.6814, 5.3963, 33.2756, -2.3994
0.6424, -0.6106, -0.6602, -6.4329, 20.5927, 29.0640
0.3373, -0.5609, -0.6569, -20.3354, 6.9951, 48.8201
-0.0070, -0.5479, -0.7552, -28.4451, -18.4317, 51.2591
-0.6175, -0.5517, -0.9307, -12.2866, -64.3463, 10.5884
-0.7575, -0.5844, -0.9537, 6.7378, -48.6146, -28.4360
-0.4000, -0.6372, -0.8033, 17.3476, 15.7146, -47.2774
0.2233, -0.5637, -0.7176, 18.0793, 45.4707, -42.5213
0.5627, -0.5794, -0.6795, 12.2866, 27.5439, -19.5945
0.6021, -0.5818, -0.6628, 0.7012, 4.8610, 10.8323
0.3907, -0.5916, -0.6829, -12.6524, 5.2268, 41.3811
0.1713, -0.4900, -0.7671, -22.5305, -16.2366, 50.9543
-0.4865, -0.5144, -0.9474, -8.8720, -61.6024, 24.6128
-0.9439, -0.5759, -0.9271, 7.6524, -60.4439, -28.3750
-0.4813, -0.6463, -0.8047, 13.6280, 23.1537, -40.4482
0.1276, -0.5786, -0.7115, 17.4695, 47.8488, -44.0457
0.4183, -0.5936, -0.6751, 13.3232, 22.5439, -29.9604
0.3011, -0.6033, -0.7733, 11.1280, -13.9805, -24.5945
0.3243, -0.6137, -0.6824, 1.1890, 8.9463, 4.4299
0.3426, -0.5904, -0.6517, -9.4207, 28.4585, 32.6006
0.1641, -0.5495, -0.7012, -17.2866, 4.1902, 41.0152
-0.0632, -0.5335, -0.8089, -18.0793, -29.7732, 34.1250
-0.4461, -0.5607, -0.8581, -7.8354, -39.1024, 10.0396
-0.4705, -0.6268, -0.8388, -1.3110, -8.9195, -12.2165
-0.1343, -0.6745, -0.7266, 1.0061, 17.9707, -15.2652
-0.0142, -0.6793, -0.7548, 1.9817, -2.9439, -36.4848
0.0146, -0.6299, -0.7853, 1.3720, -22.3951, -48.8018
0.1902, -0.5855, -0.7687, 1.7378, -8.2488, -37.3994
0.4795, -0.5145, -0.7226, -0.8841, 17.4829, -1.5457
0.5520, -0.5101, -0.6962, -8.9329, 27.4829, 39.0031
0.2737, -0.4722, -0.6879, -20.7012, 0.1049, 53.3323
-0.0789, -0.5274, -0.8519, -23.8110, -53.9195, 46.5640
-0.8419, -0.5276, -0.9687, -5.3963, -72.8829, -0.0213
-0.7016, -0.5853, -0.8851, 6.5549, -4.9561, -23.2530
-0.1364, -0.6013, -0.7552, 13.2012, 46.5683, -27.0945
0.2911, -0.5371, -0.7489, 14.9085, 30.1049, -28.4970
0.4112, -0.5266, -0.7105, 9.6646, 2.9707, -8.1921
0.4215, -0.5643, -0.6609, -4.0549, 3.3366, 23.3933
0.2264, -0.5215, -0.7428, -14.9085, 7.6659, 41.6250
0.0513, -0.5687, -0.8004, -21.6159, 1.9341, 52.2957
-0.3902, -0.5863, -0.8677, -12.5305, -28.4927, 26.6250
-0.6364, -0.5796, -0.9866, 2.2256, -43.0049, -11.2409
-0.5859, -0.6311, -0.8735, 15.5183, -3.9805, -40.2652
-0.1716, -0.6311, -0.7917, 19.7866, 38.4585, -50.2043
0.3486, -0.5117, -0.7252, 15.7012, 50.7146, -31.2409
0.4230, -0.5305, -0.7115, 10.5183, 10.2878, -21.6067
0.3164, -0.5691, -0.6996, 0.7012, 2.6049, -1.7896
0.2467, -0.5391, -0.6826, -9.1159, 19.6171, 24.0030
0.1467, -0.5698, -0.6732, -19.1159, 15.3488, 36.1982
-0.0820, -0.5819, -0.7626, -19.7256, -34.4073, 26.8689
-0.6892, -0.5778, -1.0126, 1.7988, -73.3098, -20.9360
-0.6453, -0.6127, -0.9130, 13.6280, -19.5902, -47.7652
-0.0227, -0.5709, -0.7885, 20.5183, 51.2024, -41.7896
0.5319, -0.5087, -0.6771, 17.6524, 56.6293, -17.5823
0.6945, -0.5280, -0.6566, 8.3232, 16.1415, 12.4787
0.4010, -0.5863, -0.6085, -8.7500, -6.2366, 35.5274
0.0310, -0.5288, -0.6550, -24.2378, -18.9195, 43.7591
-0.4497, -0.5546, -0.9012, -18.0793, -57.8829, 22.1738
-0.8957, -0.6154, -0.9757, 3.0793, -54.8341, -29.0457
-0.3770, -0.6191, -0.8369, 12.1037, 24.9220, -38.3750
0.1913, -0.5844, -0.7377, 18.6280, 52.7878, -38.0701
0.5554, -0.5371, -0.6931, 11.8598, 36.2634, -12.7043
0.5651, -0.5534, -0.6921, -0.0305, 13.2756, 14.0030
0.3710, -0.5698, -0.7068, -17.6524, 1.9951, 33.0274
0.0912, -0.5914, -0.7484, -30.0915, -14.8951, 44.0031
-0.5106, -0.5442, -0.9728, -16.3110, -58.6146, 8.0274
-0.8561, -0.6512, -0.9473, 0.2744, -62.3951, -38.3750
-0.4677, -0.6559, -0.8356, 12.4695, 13.8244, -57.1555
0.1728, -0.5548, -0.7297, 19.2988, 41.9341, -53.7409
0.4611, -0.4934, -0.7173, 18.2622, 27.3000, -33.7409
0.5951, -0.4820, -0.6475, 8.5671, 3.2756, -2.0335
0.4961, -0.5006, -0.5945, -6.8598, 17.7878, 35.9543
0.2007, -0.5501, -0.6020, -24.4207, 17.4220, 50.5274
-0.0953, -0.5584, -0.8186, -28.9329, -35.2610, 48.5152
-0.7224, -0.5525, -0.9998, -5.8841, -64.4073, 0.4055
-0.7191, -0.6481, -0.9106, 12.1646, -25.3829, -34.7165
-0.1462, -0.6146, -0.7796, 18.2012, 37.3610, -34.4116
0.3653, -0.5471, -0.7255, 16.3720, 37.9098, -27.3384
0.5372, -0.5092, -0.7123, 10.7622, 4.0073, -9.8994
0.4697, -0.5393, -0.6445, -0.5793, -0.4439, 17.5396
0.2916, -0.5604, -0.6057, -18.8110, 16.8732, 46.6250
0.1592, -0.5164, -0.7511, -31.0061, 8.1537, 63.4543
-0.4897, -0.5480, -0.9135, -17.0427, -51.2976, 30.3445
-0.9057, -0.6108, -1.0502, 5.1524, -68.6146, -22.9482
-0.5693, -0.6616, -0.8565, 16.1890, 12.2390, -43.1311
0.1877, -0.5498, -0.7985, 19.1159, 64.4341, -38.7409
0.6406, -0.5490, -0.6763, 9.6646, 63.7634, -8.0091
0.7032, -0.5678, -0.6605, -3.2622, 21.8122, 20.1616
0.3175, -0.5703, -0.7048, -15.7622, -9.6512, 35.3445
-0.1184, -0.5416, -0.8417, -17.5305, -25.7488, 40.6494
-0.7220, -0.5529, -1.0015, 3.9329, -45.5049, -0.0213
-0.6492, -0.5889, -0.8311, 14.0549, -0.5049, -28.6189
-0.0393, -0.5843, -0.7534, 18.9329, 40.1049, -34.7165
0.4703, -0.5158, -0.5521, 12.7744, 47.8488, -15.8750
0.5370, -0.5780, -0.6384, -0.8232, 10.5927, 8.9421
0.3701, -0.5806, -0.6611, -12.1646, 2.4829, 34.9787
0.1620, -0.5440, -0.7570, -17.9573, -11.2366, 44.5518
-0.3161, -0.5599, -0.9554, -6.4329, -40.5049, 26.8689
-0.8507, -0.6405, -0.9755, 13.6280, -59.8951, -24.1677
-0.4690, -0.6691, -0.8203, 20.7622, 6.6293, -42.3384
0.1640, -0.5699, -0.7118, 22.8963, 42.4220, -44.4116
0.5486, -0.5665, -0.6603, 14.7256, 36.9341, -17.1555
0.6129, -0.5542, -0.6666, 1.9817, 14.3732, 11.7470
0.4696, -0.5901, -0.6317, -13.0793, 15.0439, 43.5762
0.0999, -0.5087, -0.7598, -20.8841, -4.5293, 51.3811
-0.4819, -0.5700, -0.9010, -10.5793, -55.5049, 22.0518
-0.8969, -0.6398, -0.8917, 9.0549, -45.8098, -29.3506
-0.3070, -0.6337, -0.7521, 11.9817, 33.8854, -39.0457
0.2916, -0.5460, -0.7110, 13.8110, 49.9220, -33.1921
0.5874, -0.5775, -0.6329, 3.3232, 30.2878, -4.7774
0.5660, -0.5771, -0.6641, -10.7012, 8.2756, 26.7470
0.2583, -0.5417, -0.7216, -19.9085, -1.1756, 42.1738
-0.0937, -0.5376, -0.8597, -19.1768, -17.8829, 41.2591
-0.6430, -0.5745, -0.9458, -2.8354, -50.3829, 5.4055
-0.7600, -0.6052, -0.8735, 12.9573, -24.7122, -35.9360
-0.1821, -0.6365, -0.7242, 14.1159, 31.5073, -45.3872
0.4086, -0.5542, -0.6617, 9.6646, 46.3244, -32.0945
0.7201, -0.5817, -0.5902, -1.5549, 31.0195, 5.4055
0.5718, -0.6142, -0.6620, -14.6646, 5.9585, 34.2470
0.1914, -0.5302, -0.7184, -23.6280, -10.3829, 44.8567
-0.1839, -0.5891, -0.8245, -21.0061, -28.8585, 40.6494
-0.8196, -0.5889, -0.9494, 1.4939, -65.6878, -12.2774
-0.6683, -0.6530, -0.8821, 12.7744, -10.0171, -45.2652
-0.0074, -0.6182, -0.7523, 16.6159, 39.6171, -51.3628
0.4937, -0.5251, -0.7204, 13.1402, 39.4341, -35.8140
0.5965, -0.5710, -0.6773, 5.0305, 9.1902, -7.5823
0.5439, -0.5446, -0.6545, -7.9573, 8.5805, 30.7104
0.1874, -0.4746, -0.6874, -18.3232, -0.0171, 42.8445
-0.2095, -0.4664, -0.8231, -19.1159, -38.6146, 33.8201
-0.7735, -0.6167, -0.8887, -1.1280, -60.3829, -5.0213
-0.5012, -0.6218, -0.8060, 5.0305, 5.7756, -25.6311
0.1149, -0.6140, -0.7368, 8.2012, 51.5683, -20.2043
0.3971, -0.5789, -0.7552, 6.6768, 27.9707, -11.6677
0.2957, -0.5963, -0.7473, 1.8598, -7.9439, -2.1555
