ax,ay,az,gx,gy,gz
-0.2305, -0.5240, -0.7817, -2.2256, -0.0171, -2.3384
-0.2327, -0.5021, -0.8090, -0.7012, -2.7610, -0.8750
-0.2372, -0.5094, -0.8115, -0.2744, 1.5683, -2.6433
-0.1970, -0.5025, -0.8000, -1.1890, 1.9341, -1.5457
-0.1960, -0.5017, -0.7980, -1.4329, -2.7610, -2.4604
-0.2129, -0.5094, -0.7906, -1.7988, -7.3951, -1.4848
-0.2155, -0.5086, -0.7949, -1.4939, -5.9317, 0.7104
-0.2148, -0.5024, -0.7939, -1.9817, -5.3829, 0.7713
-0.2360, -0.5042, -0.8060, -1.8598, -4.2244, 0.8933
-0.2478, -0.5018, -0.8013, -2.2256, -4.4073, -0.5091
-0.2352, -0.5113, -0.8025, -1.7378, -2.2122, -0.9360
-0.2189, -0.5179, -0.8018, -1.7988, -4.0415, -1.3018
-0.2232, -0.5187, -0.8037, -0.7622, -5.2000, -1.9726
-0.2276, -0.5337, -0.7975, 0.5793, -5.3829, -2.8262
-0.2188, -0.5477, -0.7575, -0.0915, -6.4195, -3.1311
-0.2154, -0.5371, -0.7728, -1.3720, -10.2610, -5.5701
-0.2536, -0.5365, -0.7719, -1.6159, -16.6634, -9.4726
-0.2645, -0.5382, -0.7828, -1.7988, -14.5293, -12.4604
-0.2378, -0.5457, -0.7765, -3.0183, -11.5415, -14.1067
-0.2467, -0.5247, -0.8059, -3.2012, -9.1024, -16.3018
-0.2540, -0.5334, -0.8246, -5.2744, -11.2366, -19.5945
-0.2548, -0.5161, -0.8271, -5.6402, -10.6268, -20.8750
-0.2346, -0.5233, -0.8213, -6.8598, -5.8098, -22.0945
-0.2236, -0.4908, -0.8452, -7.3476, -5.4439, -22.7652
-0.2417, -0.4986, -0.8406, -6.7988, -6.6634, -21.8506
-0.2140, -0.4970, -0.8111, -6.0061, -1.3585, -21.6677
-0.2031, -0.5022, -0.8240, -4.9085, -2.5780, -20.2652
-0.1915, -0.5051, -0.8132, -3.1402, -4.5902, -18.7409
-0.2065, -0.5084, -0.8091, -0.9451, -7.2122, -18.7409
-0.2372, -0.5206, -0.8124, -0.4573, -8.9195, -19.4116
-0.2327, -0.5209, -0.8209, 1.7378, -8.5537, -20.9970
-0.2322, -0.5163, -0.7952, 3.0183, -8.8585, -22.4604
-0.2445, -0.5178, -0.7952, 4.3598, -9.3463, -25.3872
-0.2199, -0.5211, -0.8030, 6.0061, -11.4195, -26.9116
-0.1962, -0.5244, -0.7740, 7.2256, -12.2122, -27.1555
-0.1961, -0.5253, -0.7491, 6.4329, -13.7976, -27.8262
-0.1746, -0.5320, -0.7656, 7.0427, -16.7854, -25.2043
-0.1631, -0.5296, -0.7397, 8.5671, -23.4317, -22.2165
-0.2081, -0.5330, -0.7405, 10.3963, -31.1756, -23.6799
-0.2578, -0.5453, -0.7932, 13.9329, -40.2000, -25.0823
-0.2719, -0.5798, -0.7576, 20.5793, -36.4805, -24.8384
-0.2610, -0.5903, -0.7488, 22.2866, -28.5537, -27.7652
-0.1992, -0.5969, -0.7254, 21.3720, -27.8829, -25.7530
-0.2259, -0.6148, -0.6891, 23.2622, -40.2000, -27.3994
-0.2642, -0.6147, -0.7025, 20.2134, -48.9195, -32.8872
-0.3027, -0.6156, -0.7050, 15.2134, -45.3220, -37.5823
-0.2332, -0.5684, -0.7262, 12.8354, -44.4073, -33.0701
-0.2590, -0.5773, -0.7128, 15.7622, -52.7000, -36.4238
-0.1365, -0.4954, -0.7283, 23.3232, -43.9195, -20.4482
0.0345, -0.4383, -0.6605, 25.3963, -11.2976, 17.6006
-0.0072, -0.5413, -0.6871, 12.8963, -8.6756, 34.9177
-0.1475, -0.6185, -0.6892, -4.8476, -8.1268, 44.3079
-0.1442, -0.7010, -0.7305, -24.8476, 7.0561, 54.0031
-0.4230, -0.6943, -0.8657, -22.6524, -48.4317, 36.8689
-0.9669, -0.8163, -0.8873, -4.5427, -85.9317, -7.2774
-1.0139, -0.6828, -0.7642, 8.3841, -26.5415, -35.5091
-0.7296, -0.6913, -0.6285, 7.4085, 20.2268, -66.7896
-0.0411, -0.4771, -0.5912, 12.4085, 31.2634, -50.9360
0.2953, -0.3830, -0.4348, 1.0061, 30.8976, -18.3140
0.3163, -0.3897, -0.6102, -6.7988, 7.4220, 24.7348
-0.1593, -0.4708, -0.7587, -9.4817, -17.9439, 33.9421
-0.1867, -0.6505, -0.6625, -22.7744, 7.9098, 51.1372
-0.3737, -0.8203, -0.8730, -16.3110, -36.1146, 48.1494
-1.0899, -0.8224, -0.8893, 4.0549, -86.9683, -6.9116
-1.1437, -0.7769, -0.7312, 12.8963, -25.6268, -50.6311
-0.8007, -0.6781, -0.7667, 16.2500, 19.2512, -87.5213
-0.0847, -0.5042, -0.5761, 23.6890, 51.0805, -63.4969
0.2959, -0.3557, -0.4124, 17.1646, 48.5195, -30.2043
0.4047, -0.3333, -0.4509, -1.6768, 22.1171, 16.7470
-0.0305, -0.4812, -0.6342, -14.9085, -13.0659, 27.7226
-0.1201, -0.5549, -0.6669, -27.2866, 1.3854, 50.5884
-0.3338, -0.8178, -0.8343, -21.9817, -36.2366, 53.2713
-1.0648, -0.8842, -0.9178, -0.4573, -92.2122, 1.1982
-1.2050, -0.8010, -0.7682, 14.4207, -47.9439, -52.3384
-0.7943, -0.6481, -0.8947, 18.8110, 14.0683, -83.9238
-0.0112, -0.5004, -0.5078, 23.0183, 66.3854, -59.2896
0.3806, -0.3722, -0.4202, 11.0671, 58.3366, -20.6921
0.4148, -0.4021, -0.4421, -8.6280, 34.7390, 24.1250
0.0016, -0.4884, -0.6393, -20.4573, -15.7488, 34.2470
-0.1359, -0.6357, -0.7821, -28.6280, -2.8829, 59.5518
-0.5333, -0.8892, -0.7842, -18.8110, -42.3341, 45.2226
-1.1898, -0.8317, -0.9220, 5.8232, -82.7000, -10.8140
-1.0780, -0.7493, -0.6911, 14.1159, -9.4683, -55.4482
-0.4999, -0.6392, -0.7220, 14.7256, 41.8732, -75.8750
0.0793, -0.5289, -0.4939, 13.6280, 46.9951, -56.1189
0.4387, -0.4303, -0.4203, -0.6402, 46.2634, -9.6555
0.4489, -0.4798, -0.5291, -14.9085, 26.6902, 27.7226
0.0615, -0.5711, -0.6589, -20.2744, -4.3463, 48.6372
-0.1450, -0.7647, -0.6202, -31.3720, -5.9317, 71.1372
-0.7988, -0.8717, -0.8511, -14.8476, -81.9683, 31.9909
-1.3072, -0.9061, -0.7970, 3.4451, -86.5415, -48.1311
-0.8963, -0.7838, -0.7067, 5.8841, 25.3488, -63.5579
-0.0850, -0.6157, -0.6756, 15.3354, 56.8732, -68.1311
0.1854, -0.4986, -0.4534, 15.4573, 43.4585, -44.2896
0.4209, -0.4071, -0.4607, 6.3720, 22.1780, -9.8994
0.3520, -0.5321, -0.5212, -7.1037, 14.3732, 32.9055
0.0469, -0.5490, -0.6153, -15.8232, 0.3488, 53.6982
-0.1694, -0.7653, -0.7078, -28.4451, 2.9098, 77.8445
-0.8463, -0.7779, -0.8873, -14.8476, -78.3707, 30.7713
-1.3197, -0.7750, -0.8871, 7.7134, -96.7244, -44.8384
-0.9683, -0.7448, -0.7330, 12.4085, 21.5683, -59.5945
-0.2143, -0.6279, -0.7284, 20.5183, 65.9585, -73.6799
0.3506, -0.4939, -0.4881, 19.7256, 88.9463, -23.9848
0.7404, -0.4356, -0.4356, -0.3354, 69.1293, 11.0152
0.5140, -0.5435, -0.5439, -17.6524, 35.4098, 57.2348
0.0814, -0.5838, -0.5728, -35.9451, 12.8488, 81.0762
-0.3618, -0.6353, -0.7679, -36.6768, -35.4439, 84.7348
-1.1448, -0.6547, -0.8826, -14.8476, -102.9439, 25.2835
-1.3977, -0.7433, -0.8243, 12.2866, -86.7244, -39.1067
-0.9919, -0.7369, -0.6725, 18.1402, 27.0561, -70.6311
0.0309, -0.5325, -0.7909, 16.8598, 56.8122, -68.0091
0.3783, -0.4508, -0.4622, 13.6890, 79.3122, -27.7043
0.7880, -0.4671, -0.5615, -1.1890, 54.7390, 23.5152
0.4175, -0.6225, -0.5789, -13.9329, 25.7146, 65.2835
0.0169, -0.5956, -0.5879, -28.1402, 15.0439, 93.1494
-0.3941, -0.5818, -0.7457, -28.8720, -30.2610, 85.2226
-1.0967, -0.5932, -0.9401, -8.1402, -89.0415, 31.1372
-1.3726, -0.7616, -0.7860, 15.7622, -88.2488, -41.1189
-0.9622, -0.7329, -0.6788, 20.2744, 21.5683, -61.2409
-0.1132, -0.6372, -0.5610, 18.8110, 73.7634, -56.9726
0.4582, -0.4793, -0.5811, 12.7134, 71.9341, -18.3140
0.6755, -0.4170, -0.5270, -3.5671, 37.6659, 20.3445
0.2843, -0.5365, -0.6301, -16.6159, -5.4439, 54.3689
-0.0189, -0.5343, -0.6483, -29.0549, -8.6756, 82.4787
-0.4744, -0.6281, -0.7632, -26.3110, -62.8829, 69.7348
-1.3306, -0.6824, -0.9716, -3.9939, -122.3951, 4.4909
-1.4437, -0.8026, -0.7601, 11.4939, -56.6024, -51.1189
-0.7615, -0.6569, -0.8293, 15.9451, 38.0927, -77.5213
0.0846, -0.5787, -0.5231, 16.5549, 86.0195, -48.3750
0.4158, -0.4294, -0.5763, 13.4451, 51.8732, -23.9238
0.4768, -0.4436, -0.5125, -4.4207, 28.4585, 21.1982
0.1241, -0.5503, -0.5995, -18.4451, 8.2756, 43.3323
-0.1203, -0.6021, -0.6153, -28.9329, 16.6293, 72.1128
-0.4599, -0.6970, -0.7935, -23.6890, -50.5049, 56.0762
-1.4186, -0.6793, -0.9714, 6.4939, -133.7976, -21.4238
-1.3187, -0.6967, -0.7429, 19.3598, -38.1268, -56.3018
-0.7097, -0.6190, -0.8796, 26.4329, 32.5439, -89.4116
0.1800, -0.5549, -0.4853, 26.0671, 85.2878, -41.7896
0.5969, -0.4381, -0.4381, 13.4451, 77.9098, 1.4421
0.5768, -0.5456, -0.4482, -10.5183, 35.8366, 48.6982
0.0896, -0.5486, -0.5552, -34.1159, -8.0659, 66.5640
-0.2824, -0.6527, -0.6719, -48.5061, -42.3341, 79.0640
-1.1140, -0.6656, -0.9632, -20.0305, -102.3951, 34.6738
-1.5874, -0.7397, -0.9489, 11.9817, -103.8585, -49.1677
-1.0498, -0.7091, -0.6948, 20.1524, 42.2390, -58.0701
-0.1431, -0.5736, -0.7607, 27.4085, 60.1659, -82.3384
0.2959, -0.5016, -0.4821, 20.8232, 71.7512, -27.1555
0.5826, -0.4379, -0.4377, -2.1037, 42.4220, 2.3567
0.2627, -0.5980, -0.5245, -19.6037, -1.3585, 38.0884
-0.0711, -0.5943, -0.5790, -32.9573, -0.3220, 63.6982
-0.3330, -0.6926, -0.7657, -37.5305, -32.4561, 69.6738
-1.1600, -0.5859, -0.9805, -10.3963, -98.0659, 13.1494
-1.3407, -0.7088, -0.8876, 16.6768, -82.2122, -52.0945
-0.9923, -0.6999, -0.7865, 28.0183, 44.9220, -71.3018
0.1672, -0.5479, -0.6407, 25.5793, 83.9463, -53.4360
0.4488, -0.4252, -0.4211, 17.4085, 80.5927, -9.6555
0.6214, -0.4394, -0.4256, -8.2012, 21.3244, 30.2835
0.0181, -0.5943, -0.5816, -24.3598, -39.9561, 38.2713
-0.2050, -0.6111, -0.5975, -34.2988, -10.9927, 70.1616
-0.4306, -0.7018, -0.8812, -28.5671, -45.2610, 57.2348
-1.2918, -0.6434, -0.9871, -0.5793, -97.3951, -5.8140
-1.2114, -0.6990, -0.7872, 17.7744, -41.8463, -44.5335
-0.7543, -0.6256, -0.8190, 25.0305, 35.4098, -77.8872
-0.0236, -0.5900, -0.5723, 23.3232, 68.8244, -53.9848
0.4010, -0.4653, -0.4940, 18.5671, 83.5195, -4.8384
0.5862, -0.4757, -0.4101, -1.7988, 42.0561, 29.7348
0.0731, -0.5823, -0.5535, -17.5915, -11.6024, 49.0640
-0.1262, -0.5497, -0.5858, -33.0793, 1.8122, 74.3079
-0.3580, -0.6394, -0.8403, -34.5427, -50.4439, 64.2470
-1.1802, -0.6208, -1.0195, -10.0915, -107.5171, 3.3323
-1.2987, -0.7123, -0.8496, 17.2256, -54.7122, -41.3018
-0.7915, -0.6561, -0.7596, 22.7134, 37.1171, -66.9116
-0.0059, -0.5734, -0.6301, 28.2622, 73.7634, -42.3384
0.2496, -0.5188, -0.5093, 19.5427, 42.9707, -27.7043
0.4751, -0.4812, -0.4633, 0.7622, 34.6780, 22.5396
0.1451, -0.6040, -0.5439, -16.4329, -0.5049, 40.2835
-0.1162, -0.6067, -0.5621, -31.0671, -3.0049, 65.3445
-0.4457, -0.6641, -0.7001, -27.7744, -29.4073, 64.4299
-1.2631, -0.6449, -1.0419, -0.5793, -105.1390, -3.9848
-1.3109, -0.6513, -0.7612, 19.5427, -32.6390, -46.1189
-0.8562, -0.6676, -0.7833, 25.5183, 62.4220, -73.1311
0.2160, -0.5587, -0.4823, 22.2866, 109.1293, -37.6433
0.3990, -0.5192, -0.4087, 6.1280, 78.0317, -18.5579
0.5080, -0.5289, -0.5345, -15.8232, 20.0439, 28.5762
-0.0077, -0.5733, -0.6711, -25.4573, -13.9805, 40.1616
-0.2738, -0.6550, -0.6622, -37.7744, -14.4683, 57.5396
-0.7125, -0.6400, -0.9609, -16.6159, -66.0537, 37.7835
-1.2922, -0.6548, -0.9008, 12.4695, -108.3098, -42.2165
-1.1041, -0.6812, -0.7136, 24.9085, -4.5902, -57.5213
-0.3778, -0.6489, -0.6149, 23.6890, 35.7756, -83.0701
0.3261, -0.4894, -0.4261, 17.1646, 77.7268, -22.2165
0.6347, -0.4317, -0.4263, -4.5427, 40.8366, 3.3933
0.3188, -0.6100, -0.5471, -20.0915, -9.5293, 42.9665
-0.0413, -0.5573, -0.6485, -27.5305, -19.5902, 61.5031
-0.3439, -0.6666, -0.7400, -32.1037, -33.4927, 70.7713
-1.0554, -0.6268, -0.9285, -11.4939, -85.6878, 27.2957
-1.4025, -0.7018, -0.8476, 14.6646, -91.6024, -44.1677
-1.0658, -0.6951, -0.6501, 18.6280, 19.4341, -59.1677
-0.1311, -0.5606, -0.6993, 25.0915, 61.9341, -60.2652
0.1999, -0.5300, -0.5209, 18.8110, 44.8610, -35.3872
0.4412, -0.4956, -0.4845, 2.5305, 28.9463, 4.4909
0.3266, -0.6085, -0.5243, -17.3476, 14.4341, 41.2591
-0.0301, -0.5778, -0.5717, -31.1280, -1.9073, 62.1128
-0.3510, -0.6695, -0.6586, -32.8354, -14.2854, 82.3567
-0.9795, -0.6616, -0.8983, -21.3720, -93.0049, 31.8079
-1.5219, -0.6419, -0.8815, 2.9573, -93.0659, -49.8384
-1.1021, -0.6254, -0.7582, 9.7256, 45.3488, -51.7287
-0.2770, -0.5712, -0.7343, 17.1037, 70.3488, -75.2043
0.2688, -0.5115, -0.5378, 16.3110, 91.9951, -21.6677
0.5450, -0.4554, -0.5004, 0.5183, 39.0683, -6.4238
0.3519, -0.5824, -0.5711, -13.8110, -1.9073, 39.6738
-0.0758, -0.5650, -0.6236, -24.4817, -17.0902, 55.4665
-0.4976, -0.6325, -0.6896, -28.3232, -26.7854, 62.1128
-1.1813, -0.5867, -0.9499, -2.1646, -100.2000, 10.2226
-1.3955, -0.6423, -0.7449, 18.8720, -78.8585, -55.8140
-0.9850, -0.6500, -0.7802, 25.3354, 25.7146, -84.2896
0.1595, -0.5208, -0.6379, 26.5549, 86.8732, -56.6067
0.5615, -0.4876, -0.4158, 18.3841, 85.1659, -16.9116
0.6913, -0.5092, -0.4307, -2.1646, 29.9829, 35.2226
0.0717, -0.6334, -0.6063, -17.4695, -30.7488, 46.8079
-0.2590, -0.6096, -0.5973, -29.6646, -18.4927, 74.1860
-0.6760, -0.6048, -0.9292, -19.7256, -45.5049, 55.2226
-1.3880, -0.6187, -0.9488, 3.8720, -105.0171, -22.1555
-1.1690, -0.7089, -0.6975, 15.7012, -13.6146, -44.5945
-0.5529, -0.5890, -0.7945, 18.5061, 31.3244, -77.3994
0.0784, -0.5580, -0.6161, 17.3476, 58.0317, -36.1799
0.4523, -0.4498, -0.5168, 7.6524, 60.5927, 0.8323
0.3943, -0.6030, -0.5188, -12.1037, 29.6780, 40.3445
0.0220, -0.5963, -0.6388, -25.2134, -9.2854, 57.4787
-0.3162, -0.5469, -0.7679, -23.6280, -12.5780, 75.1616
-1.0307, -0.6244, -0.9304, -12.4695, -85.7488, 24.7348
-1.5176, -0.6823, -0.8112, 15.2744, -82.7000, -52.7652
-1.0122, -0.7094, -0.6580, 19.6037, 65.5927, -56.0579
-0.0001, -0.5569, -0.6128, 18.5061, 85.5317, -66.5457
0.3619, -0.5170, -0.4204, 8.9329, 93.5805, -9.1067
0.5696, -0.4460, -0.5768, -9.9695, 27.4829, 12.9665
0.0499, -0.5809, -0.6641, -16.4939, -29.3463, 31.6860
-0.2054, -0.6042, -0.6590, -21.4329, -23.4927, 49.5518
-0.5054, -0.6586, -0.7823, -20.5793, -40.5659, 44.5518
-1.1556, -0.6994, -0.8997, -0.1524, -86.7244, -9.5945
-1.1489, -0.6463, -0.7299, 13.4451, -30.8098, -44.4726
-0.7117, -0.6079, -0.7806, 18.5061, 22.9707, -74.0457
0.0243, -0.5692, -0.5568, 17.2256, 54.9829, -46.2409
0.3615, -0.4462, -0.4603, 8.9329, 62.6659, -9.2896
0.5010, -0.4880, -0.4616, -11.4329, 25.2268, 27.8445
0.0847, -0.6183, -0.6160, -21.4939, -26.1756, 43.5762
-0.1773, -0.6183, -0.6218, -30.3354, -9.4683, 71.3811
-0.5380, -0.6774, -0.8248, -23.0793, -49.8951, 56.8689
-1.3421, -0.6098, -0.9990, 2.9573, -111.4195, -15.9360
-1.3157, -0.6588, -0.7456, 19.9085, -34.1024, -48.1921
-0.7334, -0.6203, -0.7844, 23.9939, 37.7268, -79.1677
0.0876, -0.5764, -0.4963, 22.2256, 86.9341, -32.5213
0.4198, -0.4373, -0.5101, 9.2378, 53.0317, -20.0213
0.4474, -0.5086, -0.4751, -12.4695, 17.6049, 25.8933
0.0051, -0.5999, -0.6566, -21.9817, -18.3098, 38.9421
-0.2040, -0.6080, -0.6312, -31.0671, 11.3244, 70.8933
-0.4140, -0.6938, -0.7575, -30.9451, -9.4683, 68.0884
-1.1630, -0.5801, -0.9612, -3.0793, -103.1268, 5.7104
-1.4027, -0.7006, -0.7858, 19.1159, -59.4683, -50.8140
-0.8885, -0.6300, -0.7424, 21.1890, 48.2146, -76.9726
0.1529, -0.5423, -0.5681, 20.2744, 113.0317, -31.1799
0.4549, -0.4834, -0.4813, 6.4939, 79.7390, -15.3872
0.5423, -0.5379, -0.5266, -14.9695, 17.1171, 27.1738
-0.0015, -0.5972, -0.6656, -23.0793, -23.7976, 40.4665
-0.2908, -0.6559, -0.6525, -30.3354, -6.7244, 64.3079
-0.6096, -0.6020, -0.9186, -19.7256, -59.5293, 46.8689
-1.4150, -0.5922, -0.8961, 11.2500, -118.3707, -33.8628
-1.3278, -0.6950, -0.6970, 21.5549, -26.6024, -66.0579
-0.4003, -0.5272, -0.7657, 27.9573, 45.8366, -86.9116
0.1815, -0.5291, -0.4212, 24.7866, 79.3122, -43.4360
0.5674, -0.4676, -0.5079, 7.5305, 58.2146, -6.7287
0.4936, -0.5777, -0.4686, -13.2012, 37.2390, 40.2226
0.0817, -0.5710, -0.5914, -29.8476, 6.0805, 62.6616
-0.2284, -0.5949, -0.6754, -39.5427, -3.9805, 87.4787
-0.8861, -0.5728, -0.9645, -23.6280, -81.4805, 53.1494
-1.6315, -0.6801, -0.9301, 11.8598, -131.5415, -43.7409
-1.3499, -0.7204, -0.7352, 24.7866, 21.4463, -59.1677
-0.2484, -0.5659, -0.6976, 27.7134, 85.6537, -82.2774
0.3036, -0.5542, -0.4183, 21.3110, 103.7024, -29.5335
0.6309, -0.4337, -0.5172, 2.2256, 37.3610, -8.8018
0.3279, -0.5983, -0.5522, -16.6768, -6.8463, 32.3567
-0.1176, -0.5853, -0.6949, -24.9695, -8.2488, 51.0762
-0.2792, -0.6618, -0.6860, -34.9695, -3.9195, 66.5031
-0.8230, -0.6532, -0.9722, -16.7378, -71.5415, 32.4177
-1.3229, -0.6643, -0.9111, 10.3963, -104.3463, -52.3994
-1.1474, -0.6861, -0.7496, 21.6159, 6.0805, -66.0579
-0.2560, -0.5888, -0.6489, 28.2622, 65.0439, -74.5945
0.3999, -0.4476, -0.4698, 22.9573, 92.6049, -19.4726
0.7163, -0.3988, -0.4223, 1.3110, 49.8610, 14.8567
0.2927, -0.6075, -0.5278, -19.8476, -14.5293, 44.1860
-0.0779, -0.5543, -0.6588, -33.5671, -27.7000, 63.9421
-0.4916, -0.6867, -0.7984, -33.7500, -50.3829, 62.6616
-1.3031, -0.6236, -1.0328, -5.7622, -106.7244, -2.0335
-1.3116, -0.6692, -0.8079, 21.3720, -46.6634, -49.2287
-0.8065, -0.6272, -0.8383, 30.5183, 49.8610, -73.7409
0.1673, -0.5568, -0.5139, 29.1768, 91.5073, -46.1189
0.5705, -0.4762, -0.4191, 9.1159, 78.2146, 1.0762
0.5790, -0.5493, -0.4361, -19.9085, 18.5195, 35.0396
0.0199, -0.5841, -0.5914, -35.8841, -32.0293, 51.8079
-0.2556, -0.5909, -0.7419, -41.7378, -24.1024, 76.0762
-0.8878, -0.6511, -0.9110, -23.7500, -87.8829, 38.8201
-1.5802, -0.6720, -0.9545, 15.8232, -126.7854, -48.0701
-1.2717, -0.7158, -0.7657, 28.6890, 15.2878, -65.7530
-0.1328, -0.5214, -0.7260, 33.0793, 89.9220, -76.1799
0.2882, -0.5060, -0.4781, 23.9939, 83.5805, -35.5091
0.6612, -0.4217, -0.4684, 2.2866, 42.3000, 4.1860
0.3840, -0.6092, -0.5012, -18.9939, 2.8488, 39.4299
-0.0520, -0.6004, -0.5815, -32.4695, -9.7122, 62.4177
-0.3610, -0.6918, -0.7219, -36.1280, -37.0293, 71.8079
-1.1692, -0.6269, -0.9589, -14.1768, -101.1146, 16.3201
-1.4620, -0.6468, -0.8603, 17.2256, -84.3463, -53.4360
-1.0601, -0.6699, -0.7425, 24.6646, 34.3122, -71.5457
0.0595, -0.5128, -0.5612, 28.2622, 103.2756, -57.2774
0.4363, -0.4629, -0.4721, 16.5549, 86.3854, -20.9360
0.7140, -0.4428, -0.4883, -8.2012, 44.2512, 26.2591
0.1709, -0.6215, -0.6007, -25.5793, -16.5415, 42.4177
-0.2333, -0.6372, -0.6246, -36.1890, -13.3098, 66.3811
-0.6533, -0.6521, -0.9728, -23.3841, -72.9439, 48.8811
-1.5228, -0.7178, -0.9003, 7.2256, -122.8220, -42.1555
-1.2068, -0.6846, -0.7814, 21.9207, 12.9098, -59.2287
-0.2283, -0.6289, -0.6387, 19.1768, 63.1537, -78.0701
0.3257, -0.4529, -0.5341, 21.6768, 71.9951, -26.3628
0.5384, -0.3746, -0.4760, 3.6890, 6.6293, -8.3750
0.2112, -0.5728, -0.5262, -15.2744, -29.9561, 29.4909
-0.1551, -0.6386, -0.6472, -23.8110, -31.7854, 42.6006
-0.3490, -0.7039, -0.6510, -30.5183, -5.6878, 62.3567
-0.7772, -0.7085, -0.9758, -14.2378, -66.3585, 27.9055
-1.2625, -0.7204, -0.9062, 14.8476, -98.3098, -48.5579
-1.0946, -0.7258, -0.7311, 24.1159, 29.1293, -65.9360
0.0007, -0.5279, -0.6357, 22.5915, 84.8610, -57.6433
0.4228, -0.4158, -0.3745, 12.5915, 106.0805, 1.3201
0.6156, -0.4459, -0.4668, -12.1037, 36.7512, 37.0518
-0.0211, -0.5849, -0.6431, -27.8963, -32.4561, 41.5640
-0.2832, -0.6566, -0.7023, -33.1402, -30.0171, 63.1494
-0.7087, -0.7277, -0.9356, -16.4329, -64.1634, 38.9421
-1.3276, -0.7537, -0.8946, 10.0915, -71.5415, -25.0213
-0.8784, -0.6506, -0.6947, 17.8354, 48.7024, -29.5945
-0.3953, -0.6200, -0.6259, 16.1890, 48.3976, -60.2652
0.1945, -0.4135, -0.5729, 12.4695, 53.5805, -18.4360
0.4312, -0.3892, -0.5024, -7.5305, 55.0439, 11.8079
0.1958, -0.5806, -0.6482, -20.2134, -8.5537, 36.0762
-0.1129, -0.5843, -0.7092, -23.1402, -22.9439, 50.6494
-0.3227, -0.7231, -0.8354, -22.6524, -28.0659, 52.0518
-0.8473, -0.7157, -0.8425, -8.8720, -55.6268, 23.7591
-1.2456, -0.6854, -0.8881, 15.5793, -68.4927, -35.9360
-1.0955, -0.6679, -0.6808, 21.6159, 20.9585, -61.7896
-0.2865, -0.5424, -0.6818, 23.3841, 59.3732, -74.5335
0.3327, -0.3955, -0.5027, 20.3354, 85.5317, -30.9970
0.7844, -0.3424, -0.4451, -0.5793, 62.6659, 21.9909
0.1942, -0.5707, -0.5803, -16.6159, -17.9439, 37.4177
-0.1453, -0.6362, -0.6109, -28.3232, -20.9317, 64.9177
-0.4020, -0.7168, -0.7958, -23.9939, -42.2732, 60.1616
-1.0598, -0.6715, -0.9148, -6.3110, -85.1390, 10.1616
-1.2920, -0.6657, -0.8289, 13.6280, -41.6024, -40.5701
-0.8374, -0.7116, -0.6658, 13.9329, 53.4585, -62.3994
0.0342, -0.4984, -0.7109, 17.3476, 70.0439, -50.7530
0.4961, -0.3961, -0.6371, 14.2378, 69.0683, -13.9848
0.5331, -0.4713, -0.5470, -1.8598, 27.1171, 29.7957
0.0138, -0.5914, -0.5912, -18.1402, -24.7122, 45.2226
-0.2368, -0.6204, -0.6469, -29.3598, -24.8951, 60.9543
-0.6833, -0.6969, -0.8541, -17.0427, -64.2244, 42.9665
-1.3521, -0.6918, -0.9076, 4.9085, -87.8220, -19.6555
-1.1066, -0.7001, -0.7590, 17.7744, 18.6415, -43.4969
-0.3280, -0.6263, -0.6642, 17.1037, 52.3000, -71.1189
0.2345, -0.4561, -0.5584, 16.5549, 67.9707, -27.2774
0.6916, -0.3498, -0.5450, -1.8598, 47.9098, 15.4665
0.1225, -0.5699, -0.6168, -13.9329, -20.6878, 29.2470
-0.2500, -0.5687, -0.6456, -20.5183, -19.8951, 54.9787
-0.3773, -0.6535, -0.8110, -18.5671, -34.5293, 49.9787
-0.9582, -0.7737, -0.8164, -5.5183, -63.9195, 14.1860
-1.0830, -0.7121, -0.8143, 9.4817, -28.2488, -26.1799
-0.6897, -0.6890, -0.7014, 13.7500, 34.1293, -45.6921
-0.1475, -0.5558, -0.6474, 12.7134, 28.4585, -49.2896
0.1235, -0.4528, -0.5085, 9.4817, 48.0317, -16.7287
0.3625, -0.3625, -0.6374, -0.9451, 17.1171, 12.9055
-0.0092, -0.5180, -0.6357, -10.3963, -13.5537, 28.5152
-0.1571, -0.6053, -0.6382, -16.9817, -3.1878, 54.0031
-0.3491, -0.6970, -0.7964, -17.2866, -34.4683, 49.7348
-0.9699, -0.7655, -0.8015, -7.0427, -73.2488, 11.6860
-1.2193, -0.7344, -0.8138, 10.5793, -39.2854, -34.7774
-0.8292, -0.7177, -0.6938, 17.5915, 39.4951, -61.1799
0.0274, -0.4165, -0.6777, 27.2256, 81.1415, -41.9116
0.3506, -0.3895, -0.5399, 13.4451, 54.9220, -26.8506
0.4786, -0.3221, -0.5956, -2.9573, 11.1415, 20.2835
-0.0814, -0.5618, -0.6409, -13.4451, -29.5902, 25.1616
-0.2449, -0.6466, -0.6141, -23.4451, -1.1756, 55.5274
-0.3056, -0.7588, -0.7905, -21.1890, -35.9317, 51.3201
-1.0253, -0.7719, -0.8163, -6.4939, -77.5780, 5.4055
-1.1777, -0.6362, -0.8395, 10.3354, -31.7244, -35.8140
-0.7156, -0.6897, -0.7238, 16.8598, 35.1049, -64.1067
-0.0148, -0.4718, -0.6812, 21.6159, 62.3610, -41.4848
0.3995, -0.3778, -0.5189, 8.9939, 44.4951, -21.4848
0.3842, -0.4408, -0.5306, -7.4695, 5.5927, 22.5396
-0.1264, -0.5761, -0.6242, -19.7256, -42.7610, 31.8079
-0.2489, -0.6509, -0.6349, -29.9085, -15.0171, 54.4909
-0.5473, -0.7195, -0.8849, -16.3110, -56.2976, 38.1494
-1.1751, -0.7485, -0.8718, -0.0915, -96.9073, -20.8140
-1.1594, -0.6611, -0.8022, 14.2988, -1.6634, -47.9482
-0.5531, -0.6249, -0.7018, 17.4695, 49.9220, -71.9726
0.0354, -0.5000, -0.6003, 20.3963, 54.3122, -48.5579
0.6609, -0.3118, -0.3628, 1.7378, 73.2756, 9.0640
0.2867, -0.5385, -0.4976, -19.7256, -23.3098, 23.5762
-0.2298, -0.5624, -0.6864, -25.8841, -45.8707, 47.4787
-0.3391, -0.6347, -0.7503, -30.0305, -15.2610, 58.9421
-0.7979, -0.7362, -0.8350, -14.9695, -62.4561, 31.1982
-1.3115, -0.7782, -0.8207, 8.4451, -87.7610, -34.1677
-0.9130, -0.6499, -0.6854, 13.6890, 19.4951, -48.6799
-0.4046, -0.5402, -0.8486, 19.1768, 1.3244, -82.0335
0.2070, -0.4256, -0.5217, 16.2500, 38.2756, -26.1799
0.5331, -0.3626, -0.4652, -2.7744, 12.2390, 8.6982
-0.1071, -0.5319, -0.6204, -18.5671, -65.6878, 15.7713
-0.4712, -0.5941, -0.7541, -16.3110, -42.3951, 30.2226
-0.4655, -0.6774, -0.7504, -13.2622, -11.4195, 35.6494
-1.0081, -0.8306, -0.8539, 7.2256, -71.4805, -12.8872
-1.0680, -0.7929, -0.7060, 16.0671, -20.5659, -49.1067
-0.6489, -0.7355, -0.6963, 14.4817, 17.1171, -77.8262
0.3163, -0.4367, -0.4715, 13.0183, 86.2634, -17.3994
0.5560, -0.2747, -0.4190, -2.8354, 70.5317, 24.3689
-0.0175, -0.5063, -0.6261, -16.0671, -43.6146, 22.7226
-0.3706, -0.5600, -0.6321, -16.9817, -33.4317, 40.1006
-0.3197, -0.6127, -0.7410, -18.3232, 12.7268, 58.9421
-0.8151, -0.7870, -0.7408, -6.3720, -48.4317, 33.8811
-1.1611, -0.7523, -0.7673, 4.5427, -75.1390, -31.1189
-0.9579, -0.6422, -0.6990, 9.5427, 5.5927, -50.6921
-0.3511, -0.5852, -0.7910, 17.8963, 36.6902, -53.9238
0.1968, -0.4965, -0.5395, 15.3354, 69.6780, -16.4238
0.5058, -0.4130, -0.4940, -0.2744, 66.5073, 31.0762
0.1136, -0.5612, -0.6174, -16.3110, -10.5049, 38.5152
-0.2271, -0.5831, -0.7232, -23.9329, -8.9195, 63.9421
-0.6301, -0.6442, -0.7673, -19.7256, -28.0659, 47.7835
-1.2858, -0.6717, -0.9416, 4.6037, -68.2488, -0.6921
-1.0935, -0.6822, -0.7001, 15.2744, 1.8122, -36.9726
-0.5772, -0.6331, -0.6712, 18.3841, 60.9585, -51.9116
-0.0355, -0.5647, -0.5543, 14.0549, 57.6659, -35.1433
0.4273, -0.4252, -0.5015, 0.4573, 75.5317, 6.3811
0.4123, -0.5125, -0.5675, -13.1402, 33.0317, 38.0884
-0.0521, -0.5397, -0.6675, -21.0061, -23.7366, 55.0396
-0.4646, -0.5997, -0.7881, -21.3720, -26.8463, 59.4299
-1.1451, -0.6385, -0.9053, 2.8963, -84.4683, 16.9299
-1.3864, -0.6953, -0.7213, 19.8476, -54.9561, -43.8628
-0.7922, -0.6779, -0.5914, 13.2622, 51.2634, -54.6555
0.0240, -0.5693, -0.5395, 12.2256, 70.9585, -37.2165
0.2659, -0.4819, -0.6087, 4.5427, 36.5683, -16.6677
0.4374, -0.4825, -0.5770, -9.1159, 39.2512, 32.9665
0.0080, -0.5658, -0.7044, -18.2622, -2.6390, 44.4299
-0.2810, -0.5601, -0.7643, -24.7866, 2.3000, 68.3933
-0.7946, -0.6529, -0.7748, -14.0549, -63.0659, 34.6738
-1.5200, -0.6598, -0.7936, 11.7988, -92.3951, -35.5091
-1.1268, -0.6438, -0.6646, 17.6524, 31.1415, -49.7774
-0.3662, -0.6395, -0.6829, 16.2500, 46.3854, -73.4969
0.2480, -0.5220, -0.5530, 13.7500, 79.4951, -21.5457
0.6619, -0.4724, -0.5129, -3.5061, 57.4829, 5.8323
0.2739, -0.6044, -0.6116, -18.5671, -0.6878, 41.6250
-0.1719, -0.5488, -0.6501, -27.2256, -15.5049, 57.4177
-0.4406, -0.6627, -0.7448, -33.2622, -44.2854, 55.5274
-1.2850, -0.5741, -0.8837, -6.3110, -100.9927, 2.2348
-1.4170, -0.5732, -0.7640, 16.9817, -60.0171, -53.0701
-0.9273, -0.6740, -0.6727, 17.2256, 33.0927, -78.4360
0.0945, -0.4931, -0.6564, 18.7500, 75.5927, -58.4969
0.5187, -0.4834, -0.5088, 11.8598, 84.6780, -9.5335
0.7126, -0.5403, -0.5254, -12.9573, 37.7268, 41.1982
-0.0104, -0.5651, -0.6844, -26.0061, -33.7976, 46.3811
-0.3940, -0.6053, -0.5957, -35.7012, -35.8098, 66.3201
-0.9241, -0.6101, -0.8398, -13.7500, -74.3463, 35.9543
-1.4509, -0.5476, -0.8546, 10.0305, -82.2732, -40.8140
-1.0081, -0.6216, -0.6814, 19.3598, 29.7390, -44.3506
-0.3752, -0.6378, -0.6601, 21.2500, 33.5195, -77.0335
0.1869, -0.5653, -0.5870, 17.7134, 63.8244, -23.9238
0.4967, -0.4436, -0.5063, 1.7378, 44.7390, 2.4177
0.1902, -0.6061, -0.6330, -15.1524, -7.3951, 34.4299
-0.1805, -0.5665, -0.7338, -21.5549, -21.7854, 44.2470
-0.3597, -0.6463, -0.7009, -27.0427, -12.6390, 58.1494
-0.9389, -0.6413, -0.8606, -5.5183, -70.5659, 27.1738
-1.3386, -0.5852, -0.7839, 14.7256, -91.6024, -54.4726
-1.1631, -0.6864, -0.7087, 17.1646, 24.7390, -68.6799
-0.0939, -0.5580, -0.6951, 15.1524, 61.0195, -73.8628
0.3589, -0.4652, -0.4575, 14.7866, 82.9707, -16.6067
0.6346, -0.4107, -0.5398, -1.9817, 17.7878, 14.2470
0.0115, -0.5896, -0.6177, -15.7622, -35.2000, 32.2957
-0.2850, -0.5581, -0.6392, -21.3110, -24.1024, 51.1372
-0.4598, -0.6662, -0.7181, -21.9207, -38.1268, 51.1372
-1.1437, -0.6882, -0.8889, -0.6402, -86.4805, -1.7287
-1.1265, -0.6844, -0.7963, 15.7622, -36.6634, -40.8140
-0.7895, -0.6942, -0.6984, 18.2012, 32.1780, -63.6189
0.0483, -0.5741, -0.6425, 17.8354, 48.3976, -48.8018
0.2836, -0.4591, -0.4817, 11.9817, 63.0927, -3.5579
0.3558, -0.5000, -0.5242, -7.7134, 18.7634, 26.5640
-0.1365, -0.5712, -0.6677, -17.3476, -31.6634, 27.5396
-0.3328, -0.6090, -0.6243, -21.5549, -6.2976, 52.2957
-0.4680, -0.6969, -0.7922, -17.2256, -29.9561, 45.1006
-1.1538, -0.6355, -0.9033, 1.4939, -87.1512, -13.9238
-1.1610, -0.6207, -0.7408, 19.1768, -35.1390, -47.6433
-0.7359, -0.6894, -0.6908, 21.6159, 28.7634, -77.8262
0.2888, -0.4743, -0.5583, 23.8110, 101.8122, -15.3262
0.6072, -0.4289, -0.4650, 6.6159, 67.0561, 5.4665
0.2420, -0.6070, -0.5574, -14.7866, -8.3098, 36.2591
-0.2103, -0.6039, -0.6558, -25.8232, -36.2366, 40.2835
-0.4593, -0.6814, -0.7609, -28.1402, -20.6268, 52.2957
-0.9170, -0.6271, -0.8694, -9.2378, -41.7244, 24.6128
-1.2052, -0.5847, -0.8170, 12.8354, -55.2610, -32.2165
-0.9528, -0.6665, -0.6235, 19.8476, 19.8610, -44.7774
-0.3709, -0.6285, -0.6083, 18.3232, 27.1171, -67.4604
0.2800, -0.5272, -0.4424, 8.8720, 83.0317, 0.4055
0.5730, -0.4455, -0.5449, -10.0305, 51.9341, 23.6372
0.0567, -0.5976, -0.7017, -21.2500, -24.7732, 37.9055
-0.2547, -0.6117, -0.6620, -26.8598, -20.6878, 56.2591
-0.5911, -0.7009, -0.8237, -17.5305, -50.7488, 44.8567
-1.5109, -0.6503, -0.9051, 9.4207, -105.4439, -25.6311
-1.1942, -0.6340, -0.6334, 17.5915, 6.4463, -45.1433
-0.5786, -0.6513, -0.6848, 14.1768, 34.7390, -87.3384
0.2743, -0.4756, -0.6043, 14.8476, 83.0317, -24.8994
0.4603, -0.4113, -0.5825, 6.7988, 33.4585, -19.2287
0.1459, -0.5447, -0.5765, -5.0915, -17.9439, 23.5762
-0.3624, -0.5706, -0.6878, -6.1280, -45.5659, 20.3445
-0.5947, -0.6807, -0.6374, -8.8110, -19.2854, 29.1250
-0.6322, -0.6970, -0.7201, -5.6402, -22.2122, 14.4909
-0.8340, -0.6918, -0.7405, 6.7378, -35.9317, -24.4116
-0.6954, -0.6608, -0.7218, 14.0549, -5.2000, -43.3750
-0.1563, -0.5864, -0.6875, 17.4085, 21.6293, -34.5945
0.2455, -0.4715, -0.4638, 11.6159, 60.2268, 16.5030
0.1270, -0.5640, -0.5334, -2.8963, 7.1780, 29.4299
-0.2985, -0.6290, -0.6033, -13.8110, -38.0659, 29.9177
-0.3782, -0.7003, -0.6070, -23.2012, -19.0415, 35.0396
-0.5482, -0.7157, -0.8347, -13.6890, -38.2488, 29.1860
-1.0567, -0.7329, -0.8577, 8.0183, -59.2244, -16.2409
-0.9544, -0.6403, -0.7166, 18.9939, 11.7512, -37.9482
-0.4744, -0.6458, -0.6274, 16.4329, 35.7146, -52.3384
0.1090, -0.4760, -0.5030, 14.4817, 61.5683, -14.4726
0.3682, -0.4029, -0.4966, -1.2500, 48.8854, 16.7470
-0.0175, -0.5876, -0.6113, -16.1890, -18.0049, 28.0884
-0.3260, -0.6526, -0.6729, -21.6159, -25.2000, 39.0031
-0.5214, -0.7537, -0.7874, -18.6890, -11.2976, 36.5640
-0.8972, -0.7334, -0.8486, -2.2256, -29.4073, 7.1128
-0.9675, -0.5991, -0.7549, 13.9329, -5.1390, -31.5457
-0.7301, -0.6343, -0.6229, 17.2866, 33.0927, -54.4116
-0.0169, -0.5051, -0.5361, 16.3110, 54.8610, -32.2165
0.3855, -0.4248, -0.3511, 1.3720, 65.7756, 13.8811
0.1922, -0.5782, -0.5090, -16.4329, -8.7366, 34.5518
-0.2089, -0.5999, -0.6559, -24.7866, -44.2244, 43.3323
-0.3757, -0.7575, -0.7818, -23.6280, -21.5415, 52.4787
-0.7465, -0.7199, -0.8898, -7.5305, -29.7122, 34.0640
-1.1481, -0.6313, -0.8752, 14.8476, -35.5049, -15.0213
-0.8585, -0.5488, -0.7019, 22.1037, 36.4463, -30.4482
-0.3729, -0.5650, -0.6100, 19.5427, 56.7512, -42.5213
0.3093, -0.4862, -0.4548, 7.6524, 83.3976, 7.6006
0.4540, -0.5543, -0.4521, -11.3110, 53.7024, 38.5152
-0.0136, -0.6140, -0.6251, -25.1524, -30.6268, 46.9909
-0.4297, -0.6802, -0.7242, -28.3232, -23.0659, 57.6006
-0.9137, -0.4964, -0.9144, -14.2378, -44.6512, 26.3811
-1.3718, -0.5217, -0.9192, 7.6524, -52.2732, -33.2530
-0.9207, -0.5994, -0.7250, 14.8476, 39.4951, -41.0579
-0.1964, -0.5248, -0.6747, 17.4695, 79.8000, -48.1921
0.3760, -0.5834, -0.4793, 4.5427, 90.3488, 1.0152
0.4857, -0.6110, -0.5538, -12.0427, 55.9585, 38.5762
0.0195, -0.6170, -0.6483, -27.2256, -0.5049, 46.5031
-0.4955, -0.5705, -0.7850, -32.4085, -40.7488, 42.7226
-1.1951, -0.5192, -0.9874, 0.7622, -111.3585, -13.2530
-1.2744, -0.5833, -0.7631, 19.6037, -14.5293, -44.4726
-0.5344, -0.5980, -0.6360, 22.2866, 75.3488, -48.1311
0.2410, -0.5429, -0.5277, 16.1280, 57.5439, -27.2165
0.4476, -0.4004, -0.4579, 1.3720, 23.2756, 7.0518
0.1269, -0.6659, -0.6406, -15.8232, -10.7488, 29.2470
-0.1588, -0.5979, -0.7678, -25.0305, 1.4463, 46.6860
-0.2406, -0.7037, -0.7840, -33.7500, 9.6780, 54.4909
-0.7152, -0.5755, -1.0255, -12.1646, -70.9317, 22.2348
-1.4254, -0.5679, -0.9434, 13.5061, -98.9805, -56.2409
-1.1115, -0.6194, -0.6985, 17.4695, 29.0073, -69.1677
-0.1307, -0.4434, -0.6827, 25.3963, 81.8122, -63.1921
0.3203, -0.4477, -0.4292, 14.0549, 79.3732, -21.1189
0.5524, -0.4036, -0.5260, -4.9085, 29.9220, 9.4909
0.0803, -0.5565, -0.6318, -17.2256, -13.8585, 33.0884
-0.1010, -0.5949, -0.6499, -28.3232, -4.2854, 57.1128
-0.3250, -0.6569, -0.8096, -26.6159, -21.0537, 60.1006
-1.0934, -0.5844, -1.0403, -2.9573, -80.0780, 11.9909
-1.2632, -0.5721, -0.8599, 18.2012, -46.1756, -50.7530
-0.8778, -0.6288, -0.7407, 22.0427, 44.1902, -67.0945
0.1200, -0.4947, -0.6260, 26.9207, 82.9098, -41.4848
0.3334, -0.5181, -0.4405, 12.9573, 71.2024, -16.6677
0.4483, -0.4782, -0.5723, -7.2256, 27.6049, 20.1616
0.0273, -0.5659, -0.6725, -17.0427, -12.2122, 27.6006
-0.2290, -0.5725, -0.7100, -23.5061, 4.9220, 49.1250
-0.2890, -0.6633, -0.7571, -28.9939, -5.8098, 48.3323
-0.9085, -0.5725, -1.0102, -0.5793, -66.6024, 12.9055
-1.2048, -0.5465, -0.8920, 21.6768, -63.6146, -50.8750
-0.8941, -0.7809, -0.7011, 20.3354, 24.4951, -66.3018
-0.0892, -0.5360, -0.6968, 26.0061, 61.4463, -54.5335
0.3259, -0.5603, -0.4794, 14.5427, 69.3732, -24.6555
0.6143, -0.5544, -0.5236, -7.1037, 37.9098, 10.7104
0.2253, -0.6265, -0.6191, -21.3110, 6.2024, 34.7348
-0.1206, -0.5244, -0.7060, -29.4207, 10.3488, 54.2470
-0.3069, -0.6142, -0.7720, -37.0427, -12.3951, 54.9177
-1.0549, -0.4846, -1.0455, -9.3598, -86.7244, 6.6250
-1.2913, -0.6218, -0.8636, 14.4207, -70.6878, -55.7530
-0.8779, -0.6790, -0.7200, 16.6159, 35.2268, -76.3018
0.0358, -0.5763, -0.6441, 19.3598, 70.4707, -60.8140
0.4301, -0.4718, -0.5176, 14.6646, 53.7634, -28.8018
0.5586, -0.4277, -0.5205, -2.7134, 6.6293, -1.4848
0.2337, -0.5480, -0.6422, -15.7012, -13.0659, 30.5884
-0.0378, -0.4844, -0.7081, -20.8841, -3.7366, 56.4421
-0.1560, -0.5853, -0.7430, -26.7988, -28.2488, 69.4909
-0.8542, -0.6416, -0.8699, -11.3110, -83.6146, 34.0640
-1.3468, -0.6827, -0.8948, 10.8232, -118.4317, -48.0701
-1.0581, -0.7296, -0.7656, 15.9451, 18.5805, -57.7043
-0.2043, -0.5798, -0.8020, 26.2500, 74.6780, -64.7165
0.2872, -0.5463, -0.6303, 27.6524, 60.6537, -42.3994
0.4540, -0.4472, -0.4786, 13.8110, 33.8854, -9.2287
0.4147, -0.5350, -0.5328, -9.9695, 7.4829, 28.9421
-0.0048, -0.5319, -0.6741, -21.1890, -11.2366, 48.7591
-0.1268, -0.6090, -0.6605, -33.4451, 8.4585, 74.9787
-0.4587, -0.6218, -0.9177, -23.8720, -49.2244, 58.3933
-1.2241, -0.5993, -1.0635, 2.2256, -106.1756, -16.6067
-1.2626, -0.6753, -0.8245, 22.2866, -30.9927, -44.3506
-0.6359, -0.4854, -0.8422, 30.8841, 43.4585, -76.4848
0.0337, -0.6156, -0.6266, 31.7378, 76.5683, -45.7530
0.4410, -0.4898, -0.5290, 25.5793, 63.7024, -24.7774
0.6666, -0.4843, -0.4804, 2.2866, 29.5561, 18.3323
0.2528, -0.5654, -0.5587, -16.1890, -8.3098, 44.3689
-0.0668, -0.6098, -0.5575, -34.4817, 1.0805, 70.8323
-0.2901, -0.6184, -0.7994, -35.3354, -28.2488, 73.3323
-1.0251, -0.5718, -0.9923, -13.3841, -85.1390, 22.1738
-1.3877, -0.6356, -0.9080, 18.6280, -86.6634, -40.5701
-0.9776, -0.6646, -0.6834, 23.8720, 48.5195, -50.2652
-0.0595, -0.4833, -0.7815, 29.1159, 75.9585, -57.6433
0.2347, -0.5379, -0.5319, 23.4451, 80.1049, -18.7409
0.5233, -0.4981, -0.5614, 3.2012, 38.7634, -1.5457
0.3082, -0.6583, -0.6443, -11.2500, 13.2756, 31.9909
-0.0561, -0.6167, -0.7316, -17.2256, 17.0561, 53.0884
-0.2218, -0.6675, -0.6729, -28.3841, 12.8488, 61.7470
-0.6989, -0.6786, -0.9582, -13.5671, -57.3951, 30.5884
-1.2153, -0.6196, -0.9297, 13.7500, -112.8220, -56.0579
-1.1580, -0.6652, -0.7480, 22.2866, 10.5317, -65.3872
-0.2045, -0.5696, -0.6337, 23.1402, 71.4463, -74.8384
0.4870, -0.4917, -0.4579, 19.0549, 91.6902, -20.6921
0.7637, -0.4472, -0.4398, -4.0549, 40.8366, 15.2226
0.2966, -0.6270, -0.5837, -24.2988, -27.5780, 37.9055
-0.0891, -0.5866, -0.6669, -34.2988, -32.8829, 57.1738
-0.4140, -0.6326, -0.8004, -31.8598, -58.0659, 52.7835
-1.1497, -0.5973, -1.0149, -6.7378, -93.6146, -1.1189
-1.1447, -0.6184, -0.8334, 15.6402, -49.1634, -48.7409
-0.7793, -0.6359, -0.8104, 21.4329, 37.4220, -67.8872
0.0345, -0.6128, -0.6049, 17.6524, 70.5317, -58.2530
0.4393, -0.5365, -0.5107, 7.1037, 67.3610, -18.0701
0.6460, -0.5435, -0.5012, -15.5183, 38.8854, 13.9421
0.2569, -0.6793, -0.6080, -29.4207, -8.9805, 39.9787
-0.0727, -0.6226, -0.6620, -36.7378, 0.1659, 60.4665
-0.2803, -0.6093, -0.7938, -37.3476, -37.9439, 56.0762
-1.0748, -0.5668, -0.9912, -9.9695, -99.7122, -2.6433
-1.3236, -0.6788, -0.8793, 17.3476, -76.6634, -55.0213
-0.8245, -0.6082, -0.7435, 20.6402, 36.8732, -71.6067
-0.0236, -0.5614, -0.7880, 25.3963, 77.3610, -65.0823
0.3215, -0.5363, -0.6089, 21.7378, 63.9463, -39.3506
0.5914, -0.5539, -0.5905, 3.2012, 49.9220, -1.6677
0.4344, -0.6540, -0.6005, -14.7256, 24.3732, 29.2470
0.0512, -0.6092, -0.6453, -26.2500, 9.4341, 50.0396
-0.1847, -0.5178, -0.8060, -24.4817, 0.7756, 65.7104
-0.7151, -0.5463, -0.9915, -8.9939, -70.0780, 23.6982
-1.3143, -0.5290, -0.9511, 23.2012, -99.6512, -54.2896
-1.0355, -0.6206, -0.7537, 31.6768, 28.3976, -57.5213
-0.0966, -0.5228, -0.7221, 32.8963, 89.0683, -69.5945
0.5297, -0.6008, -0.4550, 19.2378, 113.8854, -16.4848
0.8206, -0.6042, -0.4801, -5.3354, 64.7390, 3.9421
0.5156, -0.6854, -0.5999, -25.2134, 13.7634, 35.8323
0.0360, -0.6345, -0.6625, -35.7012, 4.1902, 51.7470
-0.2154, -0.6353, -0.7762, -35.0915, -40.4439, 49.3689
-0.9169, -0.5829, -0.9659, -6.7988, -89.0415, 3.8811
-1.0614, -0.5899, -0.8096, 16.0671, -75.2000, -53.7409
-0.8148, -0.6671, -0.7094, 21.4939, 12.2390, -78.5579
0.1023, -0.5856, -0.6865, 19.2988, 47.6049, -68.5579
0.5163, -0.5273, -0.5931, 13.3232, 55.7756, -31.9116
0.8220, -0.5768, -0.6218, -3.8110, 26.5683, 6.5030
0.4185, -0.6667, -0.6860, -17.4695, -8.1878, 33.5152
0.0497, -0.5986, -0.7415, -28.0793, -12.2122, 53.0884
-0.2513, -0.6114, -0.8293, -24.3598, -38.0659, 55.5274
-0.9149, -0.6015, -0.9656, -4.8476, -87.2122, 6.6860
-1.1318, -0.5588, -0.9043, 22.8354, -79.2244, -53.8628
-0.8477, -0.6142, -0.7667, 31.8598, 38.5195, -67.2165
0.0835, -0.6356, -0.6588, 27.0427, 78.3366, -68.5579
0.5923, -0.5930, -0.5433, 21.3110, 94.0073, -19.4726
0.8344, -0.6270, -0.5928, 2.3476, 45.4098, 8.0884
0.3692, -0.7162, -0.6688, -15.3354, -0.9317, 29.7957
0.0589, -0.5735, -0.7322, -28.5061, 5.8976, 48.3933
-0.1560, -0.5914, -0.7967, -31.4329, -19.6512, 50.1006
-0.7818, -0.5053, -0.9843, -10.2744, -62.7610, 13.3323
-0.9553, -0.5303, -0.8139, 11.5549, -69.8341, -42.1555
-0.7736, -0.6316, -0.6367, 16.0061, 26.0195, -51.5457
-0.0032, -0.6640, -0.4872, 9.2988, 70.4098, -53.1311
0.6911, -0.6790, -0.4020, -2.1646, 102.3000, 6.3201
0.8646, -0.6583, -0.4474, -20.2134, 57.6659, 37.2957
0.3111, -0.6273, -0.6100, -29.4207, -32.2122, 44.0640
-0.1676, -0.5548, -0.6865, -31.7378, -69.6512, 53.6982
-0.7274, -0.4568, -0.9518, -15.7012, -102.6390, 22.6616
-1.1419, -0.4901, -0.9004, 6.3720, -74.6512, -36.2409
-0.7504, -0.5493, -0.7845, 16.0671, 44.9220, -31.2409
-0.0881, -0.6293, -0.7429, 20.7622, 64.1293, -41.3018
0.4719, -0.6277, -0.6031, 17.1646, 55.8366, -3.1311
0.6449, -0.5874, -0.5426, 3.2622, 32.4220, 22.9055
0.4827, -0.7182, -0.6289, -11.3720, 3.2756, 47.4177
0.1174, -0.6495, -0.7092, -21.0061, -9.5902, 61.6860
-0.1292, -0.6906, -0.7261, -29.5427, -33.7366, 62.8445
-0.7688, -0.5982, -0.9755, -8.8110, -110.1390, 25.3445
-1.2673, -0.6001, -0.8911, 16.7378, -118.3098, -54.6555
-0.9664, -0.6380, -0.8232, 23.3841, 22.8488, -58.3750
-0.0186, -0.5849, -0.6359, 27.1646, 104.9829, -50.5701
0.5992, -0.5195, -0.5377, 17.8963, 85.1049, -18.4360
0.7975, -0.5513, -0.4479, -2.8354, 37.1780, 16.5640
0.4646, -0.5923, -0.5356, -21.6768, -15.6878, 41.4421
0.0069, -0.5712, -0.6289, -34.1768, -20.8098, 62.8445
-0.2472, -0.6261, -0.7577, -38.5061, -64.5902, 64.1860
-0.9752, -0.5726, -0.9964, -15.5793, -112.9439, 18.4543
-1.3280, -0.5436, -1.0039, 12.1646, -99.2244, -55.5091
-0.9415, -0.6293, -0.8533, 20.4573, 24.2512, -63.6189
0.0262, -0.5321, -0.8640, 28.7500, 74.2512, -60.9969
0.4717, -0.6227, -0.5732, 20.9451, 84.9829, -19.6555
0.8043, -0.6202, -0.5415, 1.9207, 61.3244, 20.2226
0.4308, -0.6958, -0.5818, -17.4085, 14.1293, 46.7470
-0.0049, -0.5885, -0.6383, -31.7378, 1.9341, 64.1250
-0.2576, -0.5458, -0.7583, -38.2012, -26.8463, 61.0762
-0.8027, -0.4613, -0.9371, -19.4207, -59.8951, 31.9299
-1.1564, -0.5212, -0.9317, 4.4817, -54.4683, -34.8384
-0.7462, -0.5720, -0.7144, 17.1646, 26.6902, -34.6555
-0.2384, -0.5984, -0.7759, 22.9573, 39.2512, -50.3262
0.1102, -0.6886, -0.6352, 20.9451, 51.3854, -31.0579
0.3604, -0.6423, -0.5582, 9.6646, 44.6780, -7.6433
0.5574, -0.6386, -0.5727, -9.4207, 27.3000, 25.1616
0.2638, -0.6485, -0.6501, -19.5427, 1.3244, 47.6616
0.0225, -0.6022, -0.6345, -30.5793, 6.5073, 67.7226
-0.2883, -0.6106, -0.8123, -29.8476, -50.6878, 54.1860
-1.1995, -0.4642, -1.0230, -2.5915, -121.1756, -18.3140
-1.2724, -0.5852, -0.8519, 17.7134, -62.5780, -61.1189
-0.7486, -0.6300, -0.7921, 24.7256, 42.5439, -81.2409
0.2364, -0.5175, -0.7477, 37.1037, 100.5927, -49.4726
0.5105, -0.5683, -0.5001, 27.2256, 53.3976, -42.8262
0.6453, -0.5350, -0.5393, 8.0793, 4.4341, -3.5579
0.4088, -0.5625, -0.5507, -13.5671, -11.8463, 30.2226
0.0163, -0.5523, -0.7045, -27.9573, -8.4927, 52.5396
-0.1267, -0.5996, -0.6932, -36.9817, 11.7512, 76.8079
-0.4404, -0.5830, -0.8504, -24.9695, -40.5049, 59.7348
-1.0509, -0.5454, -1.0583, -1.1280, -106.5415, -16.1189
-1.1780, -0.7044, -0.8407, 23.0793, -46.2366, -47.9482
-0.5976, -0.6258, -0.8044, 27.8963, 53.0927, -71.7287
0.2246, -0.6148, -0.6567, 29.2988, 89.8000, -42.2774
0.5959, -0.5454, -0.4771, 19.7866, 63.7634, -19.6555
0.7601, -0.5393, -0.4831, -5.6402, 18.2146, 22.7226
0.2239, -0.5719, -0.6179, -21.0671, -28.7976, 41.6250
-0.0733, -0.5736, -0.6158, -32.8354, -17.5171, 64.0640
-0.2995, -0.5898, -0.8318, -31.3720, -40.9927, 63.0274
-0.9671, -0.5433, -0.9849, -10.3963, -81.7244, 12.2957
-1.1569, -0.6008, -0.8928, 17.8963, -86.2366, -46.7287
-0.8900, -0.6613, -0.8041, 26.7378, 18.0317, -61.5457
-0.1196, -0.6049, -0.7123, 30.6402, 75.3488, -57.6433
0.4868, -0.5655, -0.5897, 26.4939, 77.6659, -21.7287
0.7134, -0.5886, -0.4826, 5.2134, 43.0317, 8.4543
0.4624, -0.6655, -0.5497, -17.1646, 1.0195, 40.4055
0.0533, -0.5856, -0.6630, -34.7866, -14.5293, 57.4177
-0.2257, -0.6112, -0.7636, -38.3841, -33.0659, 65.1616
-0.8129, -0.5468, -0.9022, -21.0061, -71.2366, 30.0396
-1.2224, -0.5751, -0.9592, 7.5305, -84.6512, -33.3140
-0.8942, -0.6060, -0.7665, 19.1768, 15.3488, -35.1433
-0.2985, -0.5397, -0.8198, 25.5183, 44.1293, -60.1433
0.0574, -0.6768, -0.5588, 19.0549, 51.0195, -37.2774
0.3903, -0.5517, -0.6048, 6.0671, 37.4829, -18.1921
0.5335, -0.6218, -0.5914, -10.3354, 25.2268, 10.2835
0.2845, -0.6835, -0.6495, -21.7988, 6.5683, 45.6494
-0.0213, -0.6109, -0.6780, -32.5915, 2.7268, 62.4787
-0.3331, -0.6077, -0.8271, -30.0305, -60.2610, 48.0274
-1.2446, -0.4824, -1.0087, -2.4085, -129.1024, -26.3628
-1.2429, -0.5950, -0.7760, 15.5183, -44.0415, -53.3140
-0.5372, -0.5251, -0.8426, 24.5427, 53.1537, -68.3750
0.1549, -0.6187, -0.5320, 21.8598, 90.1659, -41.2409
0.6086, -0.5599, -0.5488, 10.0915, 60.0439, -9.8384
0.6750, -0.6319, -0.5428, -10.7622, 17.7878, 25.5274
0.1911, -0.6337, -0.6362, -26.5549, -20.4439, 47.1738
-0.1265, -0.6007, -0.6700, -38.7500, -10.8707, 69.7957
-0.5325, -0.4984, -0.8697, -25.9451, -60.5659, 49.4909
-1.2590, -0.4309, -1.0573, 4.6037, -116.7854, -27.2774
-1.1081, -0.6143, -0.7924, 23.1402, -22.0902, -46.3628
-0.4920, -0.6065, -0.7577, 26.0671, 55.6537, -58.6799
0.2428, -0.6453, -0.6260, 21.3720, 89.9829, -32.0945
0.5700, -0.6458, -0.5369, 6.3110, 67.1780, -1.4238
0.6217, -0.6994, -0.5761, -12.1646, 31.0195, 33.8811
0.1266, -0.6300, -0.6624, -24.7866, -11.9073, 47.6616
-0.1754, -0.5580, -0.6749, -31.9207, -8.0049, 65.6494
-0.6011, -0.4660, -0.9194, -19.2988, -70.5049, 37.1738
-1.3276, -0.4544, -0.9631, 15.2744, -122.1512, -39.4726
-1.1134, -0.5902, -0.7466, 27.3476, -13.6756, -50.8750
-0.4047, -0.5465, -0.7655, 26.8598, 50.2878, -64.5335
0.2428, -0.5949, -0.6117, 23.3232, 88.9463, -30.6311
0.5024, -0.6237, -0.5803, 7.1037, 54.0683, -12.5213
0.6586, -0.6865, -0.5728, -11.7378, 37.1780, 29.9787
0.2710, -0.6680, -0.6247, -23.0793, 2.5439, 53.6982
-0.0498, -0.5885, -0.6398, -33.5061, 5.7146, 75.5884
-0.4962, -0.5294, -0.8882, -25.8232, -69.1634, 56.0762
-1.4260, -0.4481, -1.0085, 5.1524, -137.4561, -33.2530
-1.3352, -0.6740, -0.7761, 21.7988, -40.6268, -59.4116
-0.5718, -0.6316, -0.7574, 23.9329, 53.5195, -80.0823
0.2177, -0.5832, -0.6376, 27.7134, 111.8122, -42.8262
0.5541, -0.5768, -0.5492, 12.2866, 56.3854, -29.4116
0.7180, -0.5827, -0.5305, -10.1524, 26.5683, 14.9787
0.3240, -0.6185, -0.6389, -23.7500, -3.3707, 38.2713
-0.0825, -0.5856, -0.6600, -31.5549, 3.8244, 62.5396
-0.3602, -0.5380, -0.8357, -25.4573, -43.0049, 59.4909
-1.0819, -0.4912, -0.9597, -2.9573, -99.8951, -5.2043
-1.1620, -0.5910, -0.8393, 20.5183, -64.0415, -49.3506
-0.7886, -0.6542, -0.7257, 21.4939, 53.0927, -62.1555
0.2322, -0.5639, -0.6722, 20.8232, 97.4829, -37.8262
0.6308, -0.5562, -0.5128, 10.6402, 83.0927, -1.7896
0.6415, -0.6500, -0.5538, -11.3110, 15.1049, 23.8811
0.1038, -0.6842, -0.7026, -24.6037, -36.4195, 33.0884
-0.1353, -0.6313, -0.6538, -30.3354, -14.2244, 58.3323
-0.3407, -0.6015, -0.8812, -21.4329, -54.2244, 45.1006
-0.9669, -0.6082, -0.9192, 0.2744, -87.0293, -5.0213
-1.0387, -0.6391, -0.8364, 14.9085, -36.9073, -38.6799
-0.5582, -0.7308, -0.6644, 16.9817, 33.1537, -57.0335
0.0615, -0.4917, -0.7297, 19.2378, 47.0561, -41.5457
0.4269, -0.4846, -0.5363, 11.6768, 56.3854, -6.8506
0.5199, -0.5432, -0.5906, -6.8598, 20.4098, 27.0518
0.1080, -0.6060, -0.6311, -24.2988, -24.4073, 37.9665
-0.1046, -0.6527, -0.7162, -31.7378, -38.1268, 56.3201
-0.6239, -0.6456, -0.8780, -15.3963, -80.5659, 32.5396
-1.2431, -0.6913, -0.9479, 8.5061, -100.6268, -30.0823
-1.1419, -0.6206, -0.8096, 19.6646, 7.3610, -57.2774
-0.3535, -0.6301, -0.7063, 19.4207, 70.3488, -67.9482
0.3348, -0.4559, -0.6409, 19.7866, 84.0683, -34.2896
0.6935, -0.4337, -0.5068, 4.7866, 57.0561, 3.0274
0.4408, -0.5992, -0.4901, -15.0305, -0.8098, 37.2348
0.0088, -0.5095, -0.6425, -24.1159, -29.8341, 58.4543
-0.3167, -0.6153, -0.7770, -23.7500, -40.3829, 62.4177
-0.7273, -0.6715, -0.8506, -10.4573, -62.3341, 35.8933
-1.1642, -0.6997, -0.8774, 9.9695, -59.4073, -20.6311
-0.8682, -0.6629, -0.7678, 17.2866, 24.0683, -36.8506
-0.2871, -0.6773, -0.6639, 11.6768, 44.8000, -58.9848
0.1777, -0.5261, -0.6627, 12.4695, 62.1171, -25.9970
0.4687, -0.4692, -0.6660, 3.0793, 36.3244, -5.2652
0.3954, -0.5658, -0.6218, -7.2866, 17.3000, 32.1738
0.1013, -0.5884, -0.6171, -20.3354, -8.6756, 49.7348
-0.1622, -0.6187, -0.6931, -26.7988, -40.3220, 60.2226
-0.8452, -0.6379, -0.8227, -10.9451, -90.8098, 26.6860
-1.3674, -0.6467, -0.9471, 13.6890, -95.2000, -36.6677
-1.1048, -0.6790, -0.7400, 23.2012, 31.2024, -57.0335
-0.2060, -0.6144, -0.7583, 23.0793, 73.5195, -70.2652
0.3061, -0.5286, -0.5178, 19.4207, 96.4463, -32.3384
0.7840, -0.4474, -0.5543, 3.3841, 52.7878, 1.6860
0.4739, -0.5864, -0.4829, -14.2378, 1.9951, 39.5518
0.0265, -0.5277, -0.5986, -29.2988, -39.4073, 59.5518
-0.3299, -0.5879, -0.6807, -34.7256, -49.4073, 64.0640
-0.7411, -0.5579, -0.8340, -23.2012, -75.0780, 37.0518
-1.1378, -0.5975, -0.9078, -4.4817, -91.3585, -16.4238
-0.9490, -0.6265, -0.7632, 8.5671, -11.3585, -37.8872
-0.3562, -0.5864, -0.7992, 14.9085, 25.5927, -56.7287
0.1809, -0.6014, -0.6475, 14.6037, 42.3000, -31.2409
0.5031, -0.6159, -0.5620, 2.1037, 35.7756, 8.1494
0.4194, -0.6951, -0.5558, -17.1037, 8.7024, 36.9299
0.0067, -0.6078, -0.6398, -29.8476, -20.1390, 55.8933
-0.3662, -0.5504, -0.8114, -33.4451, -57.7610, 53.9421
-1.1608, -0.5137, -0.9087, -10.9451, -119.4073, 0.1006
-1.4532, -0.5703, -0.8712, 14.6037, -82.7000, -56.7287
-0.9090, -0.6409, -0.7674, 21.7988, 34.0683, -76.1189
0.1872, -0.5490, -0.5707, 22.1646, 100.4707, -42.7043
0.5596, -0.5446, -0.5203, 6.7378, 72.7268, -7.6433
0.6118, -0.6218, -0.5352, -17.1037, 22.9707, 31.6250
0.0283, -0.5560, -0.6705, -27.0427, -31.0537, 42.9055
-0.3721, -0.5177, -0.7520, -26.5549, -33.6756, 54.5518
-0.9624, -0.5277, -0.8582, -3.3841, -94.0415, 17.6616
-1.4119, -0.5867, -0.8256, 23.2622, -88.8585, -51.7896
-0.8846, -0.6655, -0.7144, 22.6524, 37.1171, -68.2530
0.2073, -0.5515, -0.6182, 19.1159, 105.8976, -34.5335
0.4957, -0.5195, -0.5543, 2.8963, 71.9341, -5.2043
0.5274, -0.5337, -0.6321, -18.6280, 19.4341, 34.4299
0.1091, -0.5648, -0.7039, -27.2256, -21.1756, 49.1250
-0.2329, -0.5562, -0.7128, -29.6037, -23.9805, 66.9909
-0.7264, -0.5450, -0.8622, -15.4573, -81.7244, 40.7104
-1.5419, -0.6528, -0.7707, 14.3598, -122.0293, -39.5335
-1.2219, -0.7358, -0.6666, 19.9085, 8.8854, -53.9238
-0.3072, -0.6209, -0.6689, 20.5793, 70.5317, -64.8994
0.2762, -0.5635, -0.5541, 13.2622, 84.1293, -17.2165
0.4870, -0.4859, -0.5781, -4.3598, 31.8122, 4.0030
0.2157, -0.5802, -0.6749, -17.5305, -10.9927, 29.2470
-0.1259, -0.5278, -0.7355, -21.4939, -14.5293, 46.3811
-0.4182, -0.5539, -0.7111, -21.6159, -14.5902, 53.3933
-0.9752, -0.5752, -0.9047, -1.7378, -79.9561, 16.5030
-1.3347, -0.5989, -0.8466, 19.6037, -82.7610, -53.3750
-0.9709, -0.6684, -0.7001, 22.4695, 23.8854, -64.4116
-0.0676, -0.5850, -0.7337, 23.5671, 69.8000, -52.6433
0.2451, -0.5885, -0.5800, 18.1402, 64.3122, -21.8506
0.3020, -0.5732, -0.6160, 4.9695, 14.4341, -5.1433
0.0095, -0.6138, -0.6515, -5.8232, -8.8585, 14.2470
-0.2869, -0.5497, -0.6944, -9.2378, -14.4683, 19.0030
-0.4063, -0.5368, -0.7195, -8.8720, 3.5195, 28.3323
-0.4555, -0.5593, -0.7429, -5.0915, -3.9195, 22.2348
-0.5679, -0.6021, -0.7711, 2.5305, -19.1024, -1.1189
-0.4923, -0.6239, -0.7339, 7.4695, -1.6024, -10.2652
