ax,ay,az,gx,gy,gz
-0.2586, -0.4192, -0.8149, 5.3963, 33.5195, -10.5091
-0.2589, -0.4119, -0.8289, 4.4817, 32.9707, -11.8506
-0.2401, -0.4151, -0.8310, 4.0549, 32.3610, -14.1067
-0.2243, -0.4194, -0.8273, 3.2622, 30.7146, -16.3018
-0.2088, -0.4075, -0.8276, 3.0793, 28.0317, -17.2774
-0.1835, -0.4028, -0.8220, 2.1646, 23.2146, -18.3750
-0.1592, -0.3889, -0.8212, 0.6402, 17.1780, -17.4604
-0.1414, -0.3840, -0.8312, -0.8232, 11.6902, -15.9360
-0.1323, -0.3907, -0.8264, -2.2866, 9.1293, -13.8628
-0.1179, -0.3884, -0.8326, -1.3720, 7.4829, -11.6677
-0.1118, -0.3922, -0.8356, -0.3354, 7.6659, -10.2652
-0.0870, -0.3861, -0.8365, 2.8354, 4.9220, -7.7652
-0.0956, -0.3901, -0.8337, 5.0305, 2.4829, -5.3872
-0.0947, -0.3946, -0.8422, 7.0427, -2.0902, -4.2896
-0.1185, -0.3978, -0.8448, 8.0183, -4.7122, -3.2530
-0.1236, -0.4156, -0.8444, 7.2256, -7.2732, -2.2165
-0.1373, -0.4185, -0.8743, 5.7012, -9.1024, -1.2409
-0.1505, -0.4210, -0.8864, 2.7134, -7.7610, -1.4238
-0.1457, -0.4337, -0.8658, -0.5183, -4.1634, -0.1433
-0.1588, -0.4181, -0.8806, -2.1037, 0.8366, 0.0396
-0.1462, -0.4261, -0.8699, -2.1037, 8.7024, 2.9665
-0.1426, -0.4049, -0.8971, -1.6768, 8.5195, 3.4543
-0.1113, -0.4152, -0.8898, 1.0671, -1.6634, 4.3079
-0.1369, -0.4174, -0.8748, 3.0183, -11.7854, 3.4543
-0.1600, -0.4316, -0.8914, 2.3476, -12.9439, 1.3201
-0.1405, -0.4279, -0.8752, 1.8598, -11.9683, 0.7104
-0.1620, -0.4292, -0.8677, 2.2256, -7.1512, -0.7530
-0.1374, -0.4456, -0.8378, 0.2134, -4.9561, -2.9482
-0.1174, -0.4394, -0.8419, 0.2744, -5.0780, -3.4970
-0.0700, -0.4272, -0.8137, 1.3720, -4.8951, -3.6189
-0.0670, -0.4505, -0.7739, -0.3354, -14.8341, -3.0701
-0.1591, -0.4577, -0.8347, 0.4573, -29.3463, -2.8262
-0.1743, -0.4653, -0.8295, 2.0427, -33.9805, -6.5457
-0.2105, -0.4898, -0.8121, 0.7012, -41.7854, -11.7287
-0.3040, -0.4846, -0.8608, 0.9451, -39.8951, -17.1555
-0.3431, -0.4653, -0.8968, 0.4573, -32.3951, -24.8384
-0.2512, -0.4970, -0.8640, -0.8232, -25.5049, -25.3262
-0.2459, -0.4707, -0.8698, -0.3963, -24.4683, -25.7530
-0.2742, -0.4665, -0.8903, -1.0671, -18.4927, -25.0213
-0.2938, -0.5274, -0.8443, -6.6768, -18.7976, -26.2409
-0.2953, -0.5166, -0.8507, -12.1646, -24.4683, -34.5945
-0.3386, -0.5292, -0.8008, -17.5305, -28.6146, -42.6433
-0.3508, -0.5033, -0.7714, -22.4695, -37.0293, -47.0945
-0.2659, -0.4802, -0.7999, -23.2622, -50.9927, -51.4848
-0.3682, -0.4039, -0.7974, -22.4085, -57.6390, -61.4238
-0.3258, -0.3479, -0.7028, -26.9207, -61.7854, -65.8750
-0.2400, -0.2527, -0.7327, -25.7012, -57.0293, -55.6921
-0.2242, -0.1781, -0.8212, -28.2622, -57.7000, -42.0335
-0.1113, 0.0053, -1.0235, -25.2134, -35.0171, -15.7530
-0.1905, -0.0435, -1.1716, -2.4085, 2.4829, 10.4665
-0.1922, -0.2496, -1.1007, 10.2134, 31.0195, 38.4543
-0.1768, -0.3497, -1.0226, 14.4207, 25.9585, 55.8323
-0.3679, -0.5802, -0.9304, 9.8476, -17.5171, 43.0884
-0.7736, -0.7725, -0.9037, 9.2378, -27.0902, 14.4299
-0.8559, -0.8448, -0.8020, -0.1524, 6.0195, -23.8018
-0.4482, -0.6016, -0.7567, -8.0183, 24.8610, -36.2409
-0.2975, -0.4591, -0.7028, -15.3354, -3.4927, -57.9482
-0.2675, -0.2352, -0.6401, -21.6159, -11.6024, -60.6311
0.0576, 0.0458, -0.7921, -23.6890, 12.5439, -25.9970
0.3000, 0.1583, -0.8848, -12.4085, 11.0805, 22.7226
-0.1160, -0.0889, -0.8839, -1.8598, -30.3220, 24.7957
-0.3336, -0.2703, -0.8994, 8.3232, -9.8951, 50.3445
-0.3220, -0.4396, -0.9552, 5.6402, -5.5049, 48.0884
-0.4444, -0.6915, -1.0120, 1.3110, -5.4439, 48.8201
-0.7815, -0.9030, -0.9923, -1.6768, -14.4683, 5.2226
-0.7759, -0.7231, -0.9681, -3.4451, 16.8122, -29.7165
-0.5318, -0.5993, -0.8572, -6.1280, 44.4951, -52.0945
-0.2949, -0.3030, -0.7502, -5.1524, 56.5683, -62.7043
0.0315, 0.0320, -0.6032, -3.6280, 60.3488, -39.1067
0.5097, 0.2779, -0.6945, -0.8841, 52.9707, 15.3445
0.0992, 0.0457, -0.5547, -1.7378, -26.2976, 26.9299
-0.2011, -0.1507, -0.8270, 5.3354, -54.0415, 48.6982
-0.4584, -0.3051, -0.9609, 11.3720, -28.0049, 60.5274
-0.3012, -0.6292, -0.9758, 5.3963, -6.1146, 71.0762
-0.6006, -1.0155, -1.0464, 11.5549, -37.7000, 47.2957
-1.0324, -0.9192, -1.0333, 16.3110, -38.1878, -21.4238
-0.7756, -0.7487, -0.9824, 6.6768, 28.5805, -53.1311
-0.3184, -0.5086, -0.8470, 5.2744, 79.1902, -62.7652
-0.0824, -0.2162, -0.5969, -0.3354, 67.3610, -60.9969
0.1822, 0.1094, -0.6476, -1.8598, 40.6537, -25.9360
0.4026, 0.3162, -0.6807, 1.9207, 25.7756, 17.2348
0.0480, -0.0316, -0.6742, -1.4939, -41.8463, 32.1128
-0.2764, -0.1434, -0.8637, 4.6037, -38.4317, 66.9909
-0.2472, -0.3698, -0.9805, 2.4695, -17.0293, 75.1616
-0.4324, -0.9364, -0.9957, 5.9451, -42.2122, 63.5762
-0.9159, -1.1250, -1.0958, 21.2500, -60.1390, 15.5884
-1.0227, -0.8475, -0.9625, 14.9085, -0.5049, -50.6311
-0.5936, -0.6790, -0.8741, 5.9451, 76.2024, -70.3872
-0.0526, -0.3966, -0.7287, 10.2134, 84.4341, -69.5335
0.0735, -0.0088, -0.7129, 11.9207, 41.1415, -49.2287
0.2178, 0.1456, -0.7169, 5.9451, 16.6293, -21.7896
0.2400, 0.1296, -0.7009, 10.3354, -2.7000, 16.9299
-0.0673, -0.1373, -0.6528, 6.5549, -31.4805, 34.7348
-0.2615, -0.2861, -0.8085, 1.3110, -19.2244, 61.2591
-0.2143, -0.5862, -0.9175, -3.6890, -27.8829, 62.1738
-0.5440, -1.0795, -1.0676, 4.2988, -52.7610, 42.5396
-0.9050, -1.0737, -1.0707, 11.7988, -46.2366, -8.4970
-0.7809, -0.7760, -1.0062, 6.9207, 16.7512, -51.3018
-0.4224, -0.6233, -0.8024, 5.9451, 61.6902, -70.1433
-0.0759, -0.2623, -0.7095, 12.7134, 58.2756, -61.1189
0.1138, 0.0610, -0.6475, 8.1402, 26.0805, -35.0213
0.3733, 0.2630, -0.7137, 4.2378, 19.1902, 16.8689
-0.0059, -0.0793, -0.6132, -3.9329, -40.8707, 25.0396
-0.2437, -0.2625, -0.8379, -5.0915, -47.7610, 56.6860
-0.3212, -0.5466, -0.8344, -13.3232, -37.9439, 62.6006
-0.4151, -1.0142, -1.0477, -9.3598, -46.7854, 56.8079
-0.8398, -1.1078, -1.0348, 2.3476, -51.9073, 6.1372
-0.8952, -0.8511, -0.9670, 0.3354, -9.4073, -46.1189
-0.5524, -0.6773, -0.9166, 1.1890, 40.6537, -66.4238
-0.2011, -0.3491, -0.7347, 5.8232, 61.5073, -67.3994
0.0215, -0.0474, -0.6053, -0.2744, 38.8244, -41.3628
0.2656, 0.1556, -0.6572, -6.0061, 19.9220, -9.3506
0.1196, 0.0577, -0.6477, -9.4817, -26.9683, 16.8689
-0.1636, -0.2066, -0.7934, -10.1524, -44.2244, 40.0396
-0.3980, -0.4168, -0.9746, -9.4817, -40.3829, 51.5031
-0.3285, -0.7451, -1.0062, -6.2500, -24.1024, 54.2470
-0.6105, -1.0554, -1.0579, 2.4085, -34.0415, 23.4543
-0.9611, -0.9762, -0.9752, 10.5793, -18.3707, -35.8750
-0.6575, -0.7257, -0.8942, 10.8232, 43.7024, -62.4604
-0.3030, -0.5572, -0.6959, 11.9817, 75.0439, -78.1311
-0.0598, -0.2407, -0.6462, 13.9329, 51.6902, -68.1921
0.0399, -0.0206, -0.6243, 3.1402, 10.9585, -47.1555
0.2341, 0.1660, -0.7603, 2.2256, 3.4585, -11.8506
-0.0468, -0.0529, -0.7814, 3.8720, -29.7732, 6.9909
-0.2105, -0.2325, -0.8151, 8.2012, -18.0049, 36.6860
-0.2266, -0.4849, -0.8748, 7.8963, -13.9195, 43.4543
-0.2363, -1.0200, -0.8390, 11.9817, -22.0902, 42.6006
-0.5786, -1.1956, -0.7706, 15.3963, -40.7488, 5.3445
-0.6810, -0.8809, -0.7634, 6.6768, -22.0293, -38.6799
-0.4419, -0.7584, -0.7631, 4.0549, 13.9463, -53.8018
-0.2720, -0.6007, -0.6042, 6.9207, 3.4585, -73.9238
-0.1350, -0.3566, -0.5890, 1.4939, -26.3585, -71.6677
-0.1059, -0.1291, -0.6567, -8.9939, -44.9561, -67.0335
0.1014, 0.0503, -0.8718, -5.5793, -21.4805, -26.1799
-0.0871, -0.1180, -0.9570, 5.2744, -22.9439, -6.7287
-0.1984, -0.2811, -0.9798, 11.4329, 0.5317, 18.2713
-0.2055, -0.5916, -0.9412, 5.5793, -4.5293, 26.7470
-0.2408, -1.0374, -0.8842, 8.2622, -29.1024, 31.5640
-0.7410, -1.0702, -0.8931, 14.4207, -58.1268, -10.7530
-0.9071, -0.9346, -0.7537, 7.7134, -18.3707, -54.7165
-0.5641, -0.7147, -0.8047, 2.1037, 35.4707, -72.0335
-0.2274, -0.4867, -0.7014, -2.4085, 42.9707, -77.3384
-0.0838, -0.1879, -0.7170, -8.3841, 26.3244, -60.2043
0.2110, 0.0348, -0.7661, -15.3963, 31.7512, -27.4604
0.2012, 0.1065, -0.8126, -9.9695, 21.0195, 17.4787
-0.0740, -0.1812, -0.7961, -13.0183, -8.5537, 22.8445
-0.1622, -0.3493, -0.8526, -15.7012, 16.6293, 54.6128
-0.0611, -0.7938, -0.8333, -19.6037, 9.8610, 61.1982
-0.3579, -1.1868, -0.9029, -6.4939, -25.2610, 51.0152
-0.7027, -0.9003, -0.8842, 3.2012, -37.2732, 0.2835
-0.7441, -0.8069, -0.8169, 9.1159, 9.4951, -45.3872
-0.3811, -0.7000, -0.7571, 14.4207, 52.3610, -60.2652
-0.0743, -0.4510, -0.6638, 17.0427, 55.8976, -68.8018
0.1769, -0.2153, -0.5856, 6.4329, 36.3854, -49.4116
0.4904, -0.0239, -0.6700, -2.9573, 23.3366, -12.9482
0.3359, -0.0418, -0.7471, -1.3720, -3.9195, 22.2957
0.0604, -0.3012, -0.8032, -4.9085, -26.2366, 36.8689
-0.1441, -0.4960, -0.9225, -5.5793, -11.0537, 59.4909
-0.1356, -0.9958, -0.9442, 0.3963, -14.3463, 60.4665
-0.5449, -1.1934, -0.8846, 9.1159, -52.8829, 11.7470
-0.7822, -0.9224, -0.8407, 9.1159, -34.1634, -38.8628
-0.5012, -0.8123, -0.8088, 8.0793, 31.9951, -64.9604
-0.0917, -0.5764, -0.6610, 10.0915, 44.1902, -77.2165
0.1714, -0.2761, -0.5707, 7.3476, 22.8488, -56.4238
0.4648, -0.0075, -0.5781, -8.3841, 6.4463, -24.0457
0.4032, 0.1155, -0.7110, -9.1768, -23.3707, 20.9543
-0.0360, -0.1927, -0.7496, -17.7744, -70.1390, 18.3933
-0.2088, -0.3678, -0.9176, -11.0061, -33.0659, 54.7957
-0.1543, -0.7703, -0.8819, -1.1280, -23.0049, 64.4909
-0.4345, -1.1450, -0.9153, 14.9085, -61.2366, 49.9177
-0.8556, -0.9258, -0.8262, 17.7134, -67.3951, -8.3140
-0.8106, -0.9011, -0.7946, 8.3841, -12.0293, -46.8506
-0.3175, -0.7193, -0.7209, 4.1768, 29.0683, -58.7409
-0.0432, -0.4245, -0.6367, 1.0061, 22.2390, -60.9360
0.1520, -0.1870, -0.6139, -14.1768, 3.5195, -43.8628
0.5204, 0.0370, -0.8186, -16.5549, 3.7024, 6.0152
0.1249, -0.0834, -0.8322, -10.3354, -36.7244, 16.1982
-0.1951, -0.2997, -0.9844, -2.1646, -29.4073, 46.0152
-0.2865, -0.5770, -0.9068, 2.1646, -1.4195, 65.9543
-0.3112, -1.0231, -0.9120, 10.3354, -34.2854, 61.9299
-0.8101, -1.0288, -0.8546, 19.6037, -60.7488, 13.2104
-0.9480, -0.8728, -0.7582, 14.0549, 1.3854, -35.7530
-0.3993, -0.7408, -0.7235, 8.6280, 65.5927, -46.8506
-0.0138, -0.5579, -0.6704, 6.7378, 56.7512, -51.4848
0.1177, -0.3353, -0.5765, 0.9451, 24.9829, -44.9604
0.4426, -0.0739, -0.6768, -7.9573, 3.0317, -5.8140
0.1072, -0.0485, -0.6327, -6.1280, -31.5415, 17.5396
-0.1943, -0.3054, -0.7535, -10.7012, -49.5293, 24.7957
-0.2477, -0.3640, -0.8229, -7.2866, -4.2244, 59.3689
-0.2177, -0.7180, -0.8386, -6.3720, -17.8220, 66.7470
-0.5075, -1.1399, -0.8675, 7.1646, -63.1878, 54.0031
-1.0401, -0.9877, -0.8676, 14.7866, -73.2488, -5.8140
-0.9432, -0.8214, -0.8505, 12.1037, 2.2390, -45.4482
-0.4584, -0.6842, -0.7670, 11.9207, 67.9098, -55.5091
-0.0034, -0.4184, -0.7588, 14.4207, 68.1537, -49.5335
0.1954, -0.2564, -0.6069, 8.0793, 38.8244, -27.7043
0.4770, -0.0351, -0.6590, 1.0061, 7.3610, 16.0762
-0.0347, -0.2017, -0.5383, -15.3963, -54.2854, 14.1250
-0.2836, -0.3548, -0.8016, -21.4329, -45.1390, 44.2470
-0.1973, -0.5382, -0.7440, -18.9329, -16.5415, 69.3689
-0.3504, -1.0053, -0.8803, -5.8232, -70.8098, 60.3445
-0.9860, -1.1065, -0.8405, 13.9939, -93.9805, 8.6982
-1.1184, -0.8893, -0.8166, 12.1037, -28.8585, -44.8994
-0.5097, -0.7428, -0.8197, 10.4573, 47.5439, -55.8140
-0.1367, -0.5141, -0.6429, 7.8963, 60.2878, -53.9848
0.1326, -0.2520, -0.6119, -3.0793, 35.6537, -34.5335
0.2989, -0.1319, -0.7040, -13.2012, -11.4805, -15.3262
-0.0332, -0.1450, -0.7108, -5.8841, -41.4805, 6.9909
-0.3042, -0.3639, -0.7644, -4.5427, -37.2732, 23.3933
-0.3067, -0.4203, -0.7335, -4.3598, 8.0317, 54.4299
-0.2678, -0.8353, -0.7650, -3.3841, -13.8585, 62.4177
-0.7561, -1.1588, -0.8442, 7.2866, -67.1512, 17.1738
-1.1240, -0.9639, -0.6980, 4.4817, -38.7366, -38.1311
-0.6351, -0.7156, -0.8152, 0.2744, 47.9098, -48.1311
-0.1665, -0.5191, -0.7272, 2.7744, 69.0683, -50.3262
0.0938, -0.2852, -0.6114, 5.8232, 49.6171, -25.9360
0.1330, -0.2004, -0.6345, -4.4207, -19.2854, -25.5091
-0.0086, -0.1273, -0.6816, -2.9573, -33.9805, 1.8079
-0.2822, -0.3674, -0.7482, -5.2744, -31.7854, 12.5396
-0.2565, -0.4722, -0.7642, -5.0915, 8.2756, 44.2470
-0.2168, -0.8368, -0.7140, -7.0427, -13.9805, 51.1372
-0.6208, -1.0605, -0.9100, 2.3476, -75.2000, 20.5274
-1.1276, -0.9409, -0.7682, 5.2744, -50.6268, -33.4969
-0.7601, -0.7455, -0.7944, 0.6402, 33.5805, -46.5457
-0.1716, -0.4907, -0.7204, 1.2500, 76.3854, -45.4482
0.0002, -0.2892, -0.5654, 1.6768, 43.3366, -35.4482
0.3012, -0.1490, -0.6509, -1.1890, 1.1415, -6.4238
-0.0792, -0.1923, -0.6113, -4.3598, -45.8707, 1.0762
-0.3556, -0.4344, -0.7780, -7.9573, -46.6634, 12.7226
-0.3533, -0.4924, -0.7814, -2.8963, 3.3976, 41.5031
-0.2986, -0.8440, -0.7454, -4.3598, -14.8341, 41.4421
-0.6653, -1.0506, -0.7611, 1.7988, -71.6634, 11.5030
-0.9331, -0.8333, -0.7444, 1.6768, -54.8341, -32.6433
-0.7155, -0.7099, -0.6994, -5.4573, 15.9585, -46.9726
-0.1774, -0.4617, -0.7512, -6.8598, 39.4341, -45.4482
0.2640, -0.2287, -0.5941, -1.1890, 31.3854, -7.5213
0.1317, -0.1019, -0.5820, -5.1524, -24.9561, 11.5030
-0.4035, -0.3738, -0.7322, -12.8963, -74.8951, -5.0213
-0.4695, -0.4113, -0.8842, 0.8232, -11.6634, 26.0762
-0.3243, -0.4450, -0.8342, 8.3841, 42.9707, 52.8445
-0.2238, -0.8920, -0.7526, 8.1402, 19.8000, 65.2226
-0.6477, -1.0644, -0.7111, 11.4939, -55.0780, 29.3079
-1.1179, -0.9120, -0.6346, 8.5061, -54.5902, -34.2896
-0.7077, -0.7086, -0.6909, 3.2622, 53.3366, -35.7530
-0.2049, -0.5565, -0.6011, -1.7988, 74.6780, -41.7896
0.1237, -0.3253, -0.6024, -6.3110, 28.2756, -28.6189
0.2575, -0.1148, -0.6356, -8.5061, -13.1878, 0.7104
-0.3208, -0.2725, -0.5989, -12.7744, -66.1756, -5.2043
-0.5076, -0.4324, -0.8351, -4.9695, -29.7732, 18.5152
-0.3820, -0.3714, -0.7947, 2.4085, 28.9463, 41.5031
-0.2406, -0.7475, -0.7933, 1.9207, 10.3488, 51.8689
-0.6308, -1.1002, -0.7640, 8.8110, -44.4683, 31.5030
-1.0566, -0.9019, -0.7159, 8.8720, -49.2244, -24.8384
-0.8402, -0.7482, -0.7236, 5.7622, 39.8000, -34.2896
-0.4272, -0.6839, -0.5873, -3.4451, 67.0561, -53.5579
0.1547, -0.3479, -0.6503, -0.0305, 49.2512, -33.1311
0.4252, -0.0773, -0.6000, -2.4695, 11.0195, 3.8201
-0.2291, -0.1824, -0.5002, -8.9939, -58.4317, -1.3018
-0.5043, -0.4170, -0.7805, -8.2012, -50.8098, 10.1006
-0.3379, -0.3158, -0.8420, 4.5427, 20.8366, 42.9665
-0.2830, -0.5671, -0.7698, 4.9085, 13.6415, 53.0274
-0.3715, -1.0050, -0.8016, 11.9207, -20.2610, 63.2713
-1.0094, -1.0309, -0.7538, 16.7988, -72.2732, -2.0335
-1.0933, -0.8831, -0.7274, 9.1159, -8.6756, -38.9848
-0.5423, -0.7224, -0.6619, 4.8476, 81.8122, -36.6677
-0.1105, -0.5199, -0.5515, 1.3720, 73.7634, -40.3262
0.0736, -0.3059, -0.5584, -11.4939, 4.4951, -37.5213
0.2047, -0.0907, -0.6321, -9.1159, -7.6390, -1.7287
-0.2749, -0.2603, -0.5825, -13.0793, -49.3463, 1.5640
-0.4642, -0.4326, -0.8146, -6.0061, -23.7976, 22.6006
-0.3548, -0.4144, -0.7814, 3.4451, 22.8488, 43.6372
-0.2260, -0.8184, -0.8326, 8.0183, -5.9927, 50.6494
-0.7157, -1.0771, -0.7744, 19.9085, -55.2000, 24.4299
-1.0850, -0.9090, -0.6909, 17.2256, -40.5659, -29.0457
-0.6864, -0.7346, -0.6888, 8.8720, 53.0927, -32.6433
-0.4517, -0.7366, -0.4027, -4.9695, 59.1293, -53.6189
0.1758, -0.3543, -0.7275, -7.2256, 24.3122, -38.3140
0.2821, -0.1526, -0.5851, -8.6280, -10.3829, -10.2652
-0.1756, -0.1919, -0.5903, -7.5305, -62.7000, 1.8689
-0.5349, -0.4446, -0.7782, -6.7378, -53.1878, 10.5884
-0.4187, -0.3738, -0.8325, 3.8720, 10.2878, 36.1982
-0.3606, -0.6881, -0.7715, 6.1280, 1.6293, 40.9543
-0.4978, -1.0419, -0.8090, 13.8110, -21.4195, 38.7591
-0.9142, -0.8878, -0.6929, 12.8963, -50.0780, -14.1677
-0.8906, -0.7591, -0.7162, 4.5427, 9.6780, -32.5823
-0.6070, -0.7375, -0.5364, -6.2500, 59.1902, -45.1433
0.0608, -0.3953, -0.7340, -8.1402, 51.8732, -35.0823
0.2112, -0.2104, -0.5944, -7.8354, 12.9098, -7.8872
-0.0839, -0.1596, -0.6127, -7.5305, -33.8585, 7.6006
-0.4790, -0.4364, -0.7140, -9.4207, -45.5049, 7.1738
-0.4846, -0.3972, -0.7999, 2.1646, 26.1415, 33.8201
-0.4268, -0.6155, -0.8333, 6.0061, 59.9220, 46.4421
-0.3880, -0.9946, -0.7595, 14.4207, 68.2146, 49.2470
-0.7573, -0.9274, -0.7604, 22.4695, 47.3000, 13.3933
-0.8630, -0.7623, -0.7439, 22.5305, 93.1537, -20.3262
-0.6270, -0.6914, -0.6204, 19.7256, 171.4463, -28.9848
0.0510, -0.4921, -0.6487, 16.8598, 176.5683, -27.4604
0.5445, -0.2715, -0.5160, 15.3963, 131.5073, 15.2226
0.2230, -0.2373, -0.5581, 2.4695, 28.8244, 10.5274
-0.2150, -0.4203, -0.7101, -5.7012, 3.4585, 9.3079
-0.2883, -0.4937, -0.8156, -8.7500, 37.1780, 29.9177
0.0068, -0.5128, -0.8565, -6.9817, 54.4341, 47.6616
-0.1156, -0.8588, -0.9261, -4.8476, 19.4341, 42.9055
-0.4738, -0.9793, -0.9306, 9.5427, -4.3463, 17.2348
-0.5267, -0.8329, -0.8650, 15.3963, 9.6780, -18.1921
-0.2974, -0.7206, -0.7626, 16.3720, 45.1659, -27.9482
-0.0465, -0.5701, -0.6265, 12.4085, 50.1659, -37.6433
0.3052, -0.3418, -0.5113, -3.2012, 31.9341, -19.4726
0.3660, -0.2214, -0.5884, -18.1402, -25.0780, 1.5030
-0.0286, -0.3432, -0.7021, -24.7866, -61.4195, -2.5823
-0.0897, -0.4306, -0.8546, -22.3476, -37.5780, 23.6982
0.0142, -0.4011, -0.9561, -20.0915, -28.0049, 41.2591
-0.2609, -0.7575, -0.9528, -13.0183, -34.7122, 36.9299
-0.6041, -1.0671, -0.9572, 5.7012, -21.6634, 24.1860
-0.6435, -0.8755, -0.8337, 18.1402, 7.1780, -6.6677
-0.3761, -0.7769, -0.7906, 19.4207, 36.2634, -25.8140
-0.1486, -0.6440, -0.7057, 17.4695, 39.0683, -38.4969
0.0646, -0.4550, -0.5463, 6.0061, 37.3610, -39.2896
0.3266, -0.3228, -0.4864, -14.0549, 16.5073, -17.6433
0.3083, -0.2450, -0.6428, -23.4451, -30.8098, 2.5396
0.0548, -0.4052, -0.7723, -22.1037, -58.5537, 11.3201
-0.0562, -0.3906, -0.9711, -9.3598, -42.7610, 40.2226
-0.4296, -0.6085, -0.8317, -7.4085, -29.3463, 24.9177
-0.4552, -0.9306, -0.9613, 4.9695, -6.4195, 32.0518
-0.5918, -0.8881, -0.8902, 21.3720, 6.7512, 2.0518
-0.5012, -0.7432, -0.7634, 22.4085, 32.1171, -24.5945
-0.2561, -0.7153, -0.7040, 21.0671, 46.6902, -32.2774
-0.0545, -0.6201, -0.5520, 17.2866, 35.1049, -40.3262
0.0425, -0.4868, -0.4399, -2.7744, 2.9098, -43.4969
0.1959, -0.2622, -0.6078, -16.7378, -7.1512, -25.2043
0.2760, -0.1361, -0.8201, -10.4573, -11.9683, 6.2591
0.0694, -0.3139, -0.8748, 3.0183, -25.2610, 18.0274
-0.0759, -0.4323, -0.9300, 16.1280, -9.9561, 48.2104
-0.3839, -0.7728, -0.7160, 2.5305, -15.5049, 25.8933
-0.3870, -1.0729, -0.8411, 3.4451, -4.8951, 31.1982
-0.5690, -0.9404, -0.8076, 6.5549, -4.5293, -4.8994
-0.4347, -0.7827, -0.8226, 4.7256, 27.5439, -27.8262
-0.2099, -0.6886, -0.7042, 4.8476, 49.7390, -35.0823
0.0414, -0.4904, -0.6786, 6.4329, 32.2390, -44.2287
0.1656, -0.3302, -0.5840, -2.1037, 14.0073, -30.2043
0.3447, -0.1958, -0.6729, -10.2744, -5.8707, -3.8628
0.1387, -0.2810, -0.6775, -11.7988, -34.9561, 8.7591
-0.0153, -0.4734, -0.8429, -8.5061, -40.5659, 27.6006
-0.1181, -0.5253, -0.8101, -4.9085, -27.3341, 48.5152
-0.3650, -0.8913, -0.8072, -8.0793, -36.7854, 31.5030
-0.5242, -1.0988, -0.8709, -0.2744, -34.0415, 12.3567
-0.5952, -0.8584, -0.7666, 5.2134, -8.8585, -21.4238
-0.3121, -0.6939, -0.7872, 5.7622, 21.7512, -36.5457
-0.1125, -0.6129, -0.6666, 5.7622, 25.7756, -44.7774
0.0885, -0.4282, -0.6147, 0.2134, 4.1293, -41.6677
0.2292, -0.2726, -0.6233, -11.3110, -20.8098, -25.9360
0.2911, -0.1223, -0.7836, -15.1524, -34.2854, 2.7226
0.0833, -0.3438, -0.7731, -13.3232, -53.6756, 19.7957
-0.0322, -0.3900, -0.9191, -8.9939, -49.9561, 51.6250
-0.4155, -0.5854, -0.7422, -14.7256, -51.9073, 48.0884
-0.5213, -0.9855, -0.9346, -11.3720, -53.3707, 45.1616
-0.8655, -1.0764, -0.7818, -0.5793, -44.0415, 0.1616
-0.7690, -0.8117, -0.8201, 2.7744, 5.7146, -33.9238
-0.3751, -0.6577, -0.7858, 3.5671, 49.2512, -47.7652
0.0109, -0.4127, -0.7043, 3.0793, 53.1537, -46.0579
0.1995, -0.2504, -0.6177, -7.1646, 23.8854, -30.6921
0.3032, -0.0995, -0.7241, -10.3354, 6.3854, -2.6433
0.1420, -0.2033, -0.7111, -6.1890, -16.0537, 23.5762
-0.1234, -0.3625, -0.7340, -1.4939, -21.3585, 44.2470
-0.2698, -0.4305, -0.8682, 2.1646, -25.3829, 63.3323
-0.4660, -0.8890, -0.7480, 8.5671, -27.7000, 53.4543
-0.7792, -1.2184, -0.7445, 13.0793, -48.7976, 13.2713
-0.8268, -0.9263, -0.7395, 13.1402, -20.8098, -27.1555
-0.4432, -0.7379, -0.8032, 9.7866, 34.5561, -45.3872
-0.0902, -0.5185, -0.7444, 14.4207, 43.0317, -51.1799
0.1229, -0.2912, -0.6350, 11.1280, 21.0805, -37.2774
0.2507, -0.1749, -0.6606, -3.6280, -10.7488, -17.8262
0.1380, -0.1522, -0.7070, -9.3598, -31.7244, 12.8445
-0.1371, -0.3959, -0.7941, -8.6280, -40.4439, 28.5762
-0.2670, -0.4434, -0.7806, -3.8110, -20.0171, 52.9055
-0.4141, -0.7637, -0.8952, 6.7378, -43.0049, 47.7835
-0.8027, -1.1879, -0.7600, 17.2866, -42.8220, 16.5640
-0.9043, -0.9913, -0.7216, 14.7866, -14.4073, -25.2652
-0.5188, -0.7912, -0.7190, 8.6890, 38.2146, -42.0945
-0.1852, -0.6104, -0.7260, 8.9329, 41.6902, -51.9726
-0.0034, -0.3483, -0.6208, 7.1646, 32.0561, -40.9360
0.2053, -0.1649, -0.6714, -3.2622, 18.6415, -16.4238
0.2399, -0.0897, -0.7114, -8.2622, -1.8463, 12.2957
-0.0799, -0.3793, -0.7712, -9.2378, -30.9927, 25.4055
-0.3005, -0.4292, -0.7393, -6.5549, -12.5780, 49.2470
-0.2996, -0.6119, -0.9238, 3.6890, -31.5415, 59.1250
-0.6290, -1.1541, -0.7396, 11.5549, -31.0537, 42.8445
-0.9224, -1.1113, -0.6905, 14.2988, -29.5293, -4.3506
-0.7071, -0.8271, -0.7326, 8.2622, 24.2512, -35.5091
-0.3232, -0.7452, -0.6862, 4.9085, 47.4220, -48.3140
-0.0388, -0.4832, -0.6451, 4.9695, 42.2390, -46.7287
0.0900, -0.2841, -0.5906, -3.7500, 12.9098, -33.8628
0.2301, -0.1210, -0.6990, -7.5915, 1.4463, -4.4726
0.0169, -0.2593, -0.6968, -9.4817, -25.7488, 15.5884
-0.2181, -0.4184, -0.8044, -6.1280, -22.6390, 35.1616
-0.2224, -0.4939, -0.7755, -7.8354, -15.5659, 55.7713
-0.4381, -0.9403, -0.7744, 5.7012, -33.0049, 50.6494
-0.8625, -1.1951, -0.7654, 14.3598, -51.4195, 11.8079
-0.9568, -0.9422, -0.7126, 12.8963, -4.5902, -32.4604
-0.5021, -0.8208, -0.7155, 8.6890, 53.0317, -46.6677
-0.1303, -0.6182, -0.6756, 8.6890, 51.5683, -58.3750
0.0526, -0.3682, -0.5936, 5.2744, 31.9341, -47.8262
0.1980, -0.1956, -0.5800, -3.1402, 15.7756, -22.3384
0.2550, -0.1083, -0.6765, -6.7988, -11.9073, 12.6616
-0.1476, -0.4017, -0.7132, -12.8354, -46.0537, 17.7226
-0.3060, -0.4378, -0.8091, -6.3110, -18.1878, 42.1128
-0.2525, -0.6221, -0.8247, -0.7012, -17.2732, 52.9665
-0.5061, -1.0840, -0.7686, 17.2866, -41.9073, 45.1616
-0.9884, -1.1472, -0.6475, 18.4451, -50.4439, -10.8750
-0.7615, -0.8694, -0.6882, 8.2622, 13.9463, -34.4116
-0.2977, -0.7626, -0.6585, 1.4939, 48.8244, -45.1433
-0.0395, -0.5017, -0.6392, -0.6402, 37.0561, -48.2530
0.0917, -0.3100, -0.5417, -9.0549, 16.8732, -26.7287
0.3179, -0.1146, -0.6937, -13.8720, -13.4317, 1.0762
-0.1224, -0.2934, -0.6319, -17.8963, -53.1878, 7.2348
-0.3608, -0.4215, -0.8619, -9.2988, -27.8220, 31.8079
-0.2805, -0.4036, -0.8178, -3.5671, 12.1171, 54.4909
-0.2152, -0.7419, -0.9214, 7.6524, -19.5293, 63.5762
-0.7769, -1.1917, -0.6973, 17.2256, -44.7122, 30.6494
-1.0079, -1.0042, -0.7169, 15.2134, -26.1756, -15.0823
-0.7169, -0.8220, -0.7038, 7.7134, 52.1780, -35.8140
-0.2139, -0.7515, -0.6755, 5.7012, 73.0927, -42.5823
0.0060, -0.4569, -0.6301, 2.2256, 45.6537, -45.8140
0.1529, -0.2439, -0.5890, -5.7622, 27.0561, -20.7530
0.2181, -0.1415, -0.6860, -9.5427, -5.0171, 0.7713
-0.1203, -0.3399, -0.6776, -6.3110, -28.0659, 13.1494
-0.2657, -0.4190, -0.7800, -0.1524, -0.5049, 38.6372
-0.1752, -0.4992, -0.8094, -1.9817, -0.0780, 52.2957
-0.4281, -0.8972, -0.8160, 11.1890, -17.2122, 55.7104
-0.7789, -1.1954, -0.7700, 17.8963, -35.0171, 23.2104
-0.9837, -0.9389, -0.6575, 13.4451, -1.0537, -26.1799
-0.5176, -0.8270, -0.6964, 7.1037, 64.1293, -33.8018
-0.2073, -0.7672, -0.5448, 2.1646, 62.9707, -51.9116
0.0852, -0.4154, -0.7063, -2.4085, 27.1780, -47.5213
0.0752, -0.2386, -0.6138, -8.5061, 15.0439, -31.5457
0.2479, -0.1150, -0.7583, -3.5671, 7.5439, 4.6128
-0.0678, -0.3775, -0.6962, -1.0061, -14.2244, 16.0762
-0.1758, -0.4633, -0.7641, 2.4085, -3.5537, 46.5640
-0.2547, -0.5611, -0.8471, 5.2744, -19.8951, 50.6494
-0.5407, -1.0634, -0.7301, 7.3476, -24.2854, 36.7470
-0.8004, -1.1559, -0.7128, 13.8110, -19.8341, 6.2591
-0.6651, -0.8587, -0.7196, 6.6768, 26.0195, -24.9604
-0.3060, -0.7582, -0.6778, 1.7378, 59.2512, -29.8384
-0.0789, -0.5844, -0.6078, -2.7744, 39.8000, -42.5213
0.1637, -0.3313, -0.6627, -7.4085, 14.9220, -24.4726
0.1425, -0.2397, -0.6494, -12.9573, -6.9073, -7.5823
-0.0230, -0.2940, -0.6916, -8.6890, -18.2488, 11.6250
-0.1437, -0.4536, -0.7648, -2.1037, -9.7122, 32.5396
-0.1715, -0.4952, -0.7447, -1.4329, -12.2732, 50.4055
-0.3869, -0.8884, -0.7581, 0.4573, -36.7854, 41.8079
-0.6577, -1.1573, -0.7357, 4.5427, -34.1634, 15.1006
-0.7979, -0.9416, -0.6631, 5.8841, -7.5780, -21.3628
-0.4832, -0.7825, -0.7197, 1.4939, 38.3366, -36.3628
-0.1688, -0.6582, -0.6861, 2.3476, 49.0683, -42.5823
0.0514, -0.4041, -0.6515, 4.0549, 31.9951, -39.5335
0.1582, -0.2882, -0.6387, -3.2012, 5.9585, -19.4726
0.1413, -0.2025, -0.6973, -3.5671, -9.7122, 5.0396
-0.0918, -0.3826, -0.7160, -3.8110, -21.2976, 16.9909
-0.1676, -0.4755, -0.7575, -1.0061, -4.3463, 40.4055
-0.2567, -0.5975, -0.7864, -4.4207, -19.1634, 44.0640
-0.4907, -1.0911, -0.6970, 1.9817, -30.6878, 32.9055
-0.7222, -1.1906, -0.7260, 10.1524, -36.6634, -1.3018
-0.6841, -0.8457, -0.7323, 5.1524, 8.0317, -32.9482
-0.3331, -0.7320, -0.7145, 0.0305, 46.9341, -44.1677
-0.0053, -0.4686, -0.7132, 3.4451, 46.4463, -45.9969
0.1651, -0.3383, -0.5941, -3.7500, 21.9341, -29.3506
0.1783, -0.2390, -0.6650, -12.0427, -7.1512, -10.6311
0.0569, -0.2502, -0.7194, -11.3110, -20.0171, 14.6128
-0.1511, -0.4396, -0.7698, -7.8354, -18.3707, 31.4421
-0.2337, -0.4864, -0.7327, -7.3476, -8.8585, 48.0274
-0.4047, -0.8810, -0.7751, 0.5793, -34.5902, 42.9055
-0.6558, -1.2079, -0.6457, 8.5671, -32.9439, 16.6250
-0.6863, -0.9228, -0.6635, 5.3963, -16.9683, -19.4726
-0.4004, -0.8136, -0.6999, 0.2134, 19.8000, -36.7896
-0.1504, -0.6664, -0.6490, 0.7622, 15.3488, -49.7774
0.0302, -0.4702, -0.5847, 0.7622, -3.5537, -45.5091
0.1395, -0.3104, -0.5157, -9.2378, -36.3585, -29.8994
0.1849, -0.1947, -0.5620, -20.2134, -67.1512, 0.1616
-0.1660, -0.3121, -0.7146, -23.3841, -94.1634, 11.1372
-0.3689, -0.3935, -0.9205, -9.2988, -61.2366, 31.7470
-0.4071, -0.4767, -0.9424, 6.8598, -25.0171, 48.6372
-0.5682, -0.9009, -0.8542, 19.8476, -28.6146, 39.7348
-0.8757, -1.2581, -0.7044, 22.5305, -21.1146, 8.3933
-0.8250, -0.9619, -0.6182, 9.4817, 10.6537, -27.7043
-0.4294, -0.7983, -0.7083, -2.0427, 43.4585, -37.0945
-0.2104, -0.5791, -0.6230, -3.3232, 54.1902, -41.6677
0.0572, -0.3394, -0.6513, -6.5549, 34.1293, -34.4726
0.1003, -0.2110, -0.6132, -11.5549, 13.1537, -9.5945
0.0352, -0.1777, -0.6824, -10.8841, -9.7732, 10.7713
-0.1813, -0.4162, -0.7532, -6.6768, -18.0049, 25.1616
-0.2574, -0.3991, -0.7941, -2.2866, 4.6171, 48.3933
-0.3394, -0.6427, -0.8475, 3.0793, -9.2244, 54.9177
-0.6651, -1.1883, -0.6658, 10.1524, -21.7244, 39.7957
-0.8876, -1.1184, -0.6577, 10.7012, -27.8829, -2.8262
-0.7315, -0.8498, -0.6578, -1.4329, 19.0683, -37.4604
-0.3009, -0.7066, -0.7083, -5.0305, 51.8732, -43.4360
-0.0745, -0.4436, -0.6792, -2.7134, 42.4220, -46.6067
0.1280, -0.2066, -0.6703, -3.6280, 23.5805, -22.5823
0.2044, -0.0922, -0.7119, -3.3232, -2.2122, 5.1006
-0.1238, -0.3161, -0.6553, -3.8720, -32.0902, 11.1372
-0.2470, -0.4146, -0.7847, -0.0305, -17.7610, 37.3567
-0.2472, -0.4727, -0.8008, 2.1037, -7.0902, 56.3811
-0.3848, -0.8812, -0.8047, 5.8841, -24.9561, 54.6128
-0.7205, -1.1761, -0.7917, 11.4939, -39.8951, 27.5396
-0.9721, -1.0186, -0.6067, 5.2744, -15.1390, -24.5945
-0.5678, -0.8089, -0.7326, -1.2500, 43.7634, -36.1189
-0.2263, -0.6679, -0.6402, -2.8354, 54.0683, -47.8262
-0.0036, -0.4121, -0.6884, -1.9817, 27.1171, -47.6433
0.0584, -0.2159, -0.6499, -4.2378, 12.9098, -27.7043
0.1822, -0.0888, -0.7089, -4.0549, -1.2976, 2.0518
-0.1097, -0.3402, -0.6693, -2.7744, -25.4439, 15.2835
-0.2501, -0.4227, -0.7632, 0.5183, -9.4073, 40.6494
-0.3022, -0.5033, -0.8636, 3.3841, -13.0659, 53.3323
-0.5609, -0.9222, -0.7544, 12.2256, -14.4683, 49.7957
-0.8345, -1.1707, -0.7325, 16.9817, -24.2244, 18.5762
-0.8714, -0.9583, -0.6268, 8.6280, 13.3976, -26.7287
-0.4233, -0.7727, -0.6791, 2.1037, 56.1415, -33.8628
-0.1190, -0.6264, -0.6215, -0.0915, 46.9341, -46.8506
0.0298, -0.4190, -0.6094, -1.6768, 22.8488, -39.6555
0.0884, -0.2511, -0.6314, -7.2256, 2.6659, -22.2165
0.1193, -0.1510, -0.7126, -7.8354, -9.2244, 7.2348
-0.1499, -0.4145, -0.7404, -8.2622, -26.3585, 13.9421
-0.2558, -0.4697, -0.8054, -1.3720, -4.7732, 38.8811
-0.3029, -0.6404, -0.8276, -0.8841, -6.6024, 45.8323
-0.4846, -1.0485, -0.7961, 9.6646, -15.9317, 36.9909
-0.7952, -1.0743, -0.7114, 13.6890, -23.0049, 1.9909
-0.7123, -0.8538, -0.6785, 7.2256, 16.8732, -29.5945
-0.3619, -0.7363, -0.6511, 1.9207, 46.5073, -38.9848
-0.0928, -0.5595, -0.6006, -1.6159, 37.7268, -47.0335
0.0832, -0.3627, -0.5731, -8.7500, 14.2512, -35.2652
0.2164, -0.2030, -0.6382, -14.1768, -1.3585, -7.3994
0.0430, -0.2346, -0.6692, -14.4207, -29.1024, 13.0274
-0.1929, -0.4154, -0.7560, -11.9207, -36.7244, 26.4421
-0.2758, -0.4298, -0.7960, -7.2866, -14.1024, 49.4299
-0.2969, -0.8103, -0.8343, -0.4573, -34.2854, 49.9177
-0.6929, -1.1436, -0.7274, 10.8232, -44.5902, 26.1372
-0.9486, -0.9707, -0.6751, 9.9085, -31.6634, -21.3018
-0.6271, -0.7912, -0.7276, 1.9817, 29.1902, -39.0457
-0.2092, -0.6521, -0.6728, 2.3476, 45.7146, -45.9969
-0.0304, -0.4363, -0.6071, 1.7988, 26.2634, -45.5091
0.1189, -0.2546, -0.6241, -4.2988, 8.5805, -24.2896
0.1883, -0.1397, -0.6887, -5.3963, -7.1512, 8.7591
-0.1550, -0.3717, -0.7131, -7.8354, -38.4317, 14.0030
-0.2758, -0.4677, -0.8271, -2.6524, -15.6268, 38.8201
-0.3361, -0.4989, -0.8541, -0.3354, -7.8220, 50.1006
-0.4788, -0.8604, -0.8339, 4.6037, -15.7488, 47.1738
-0.7800, -1.1300, -0.7782, 11.0061, -28.1878, 18.2713
-0.8605, -0.9216, -0.6661, 5.8232, -1.7854, -25.7530
-0.4677, -0.7538, -0.6810, -0.5793, 50.8366, -30.8140
-0.1181, -0.6732, -0.6379, -3.5671, 45.4707, -40.3262
-0.0004, -0.4603, -0.5770, -6.3110, 13.1537, -40.4482
0.0472, -0.2885, -0.6040, -14.6646, -11.9073, -29.2896
0.1351, -0.1282, -0.7102, -13.5671, -11.2366, 3.3933
-0.1725, -0.3212, -0.7351, -10.3963, -28.0049, 12.0518
-0.2747, -0.4133, -0.8298, -3.7500, -11.6634, 34.0640
-0.2914, -0.4308, -0.8383, -1.0061, 3.0927, 50.3445
-0.3843, -0.7843, -0.8748, 2.6524, -12.0293, 49.6128
-0.7087, -1.1366, -0.7744, 10.0305, -25.7488, 30.2226
-0.9106, -0.9672, -0.6691, 8.7500, -12.0902, -20.0213
-0.6107, -0.7987, -0.7218, 3.3232, 45.9585, -33.8628
-0.2110, -0.6774, -0.6443, 0.8232, 55.4098, -47.1555
0.0248, -0.4460, -0.6231, -0.4573, 31.4463, -43.9848
0.1082, -0.2291, -0.6324, -4.1768, 7.5439, -27.9482
0.2317, -0.0539, -0.7270, 1.3110, 2.8488, 11.7470
-0.1599, -0.3056, -0.6628, -1.4329, -36.9683, 8.5152
-0.2855, -0.4440, -0.7790, 2.4085, -16.5415, 35.7713
-0.2892, -0.4533, -0.8257, 2.4695, -1.2366, 51.8079
-0.3318, -0.8569, -0.8134, 4.9695, -12.4561, 50.8323
-0.6458, -1.1897, -0.7927, 12.4085, -33.6756, 26.8079
-0.8751, -0.9539, -0.6614, 11.0061, -21.4195, -18.9238
-0.5872, -0.8142, -0.7195, 1.9207, 32.6659, -33.6189
-0.2019, -0.6489, -0.6676, 0.2134, 51.9341, -44.4726
0.0058, -0.4036, -0.6294, -0.6402, 28.1537, -42.9482
0.1350, -0.2210, -0.6719, -4.4207, 7.4220, -20.8750
0.1447, -0.1262, -0.7089, -3.3841, -5.7488, 7.4787
-0.1712, -0.3931, -0.7057, -3.2012, -28.0659, 16.4421
-0.2929, -0.4303, -0.7896, 0.7622, -6.7854, 41.6250
-0.3721, -0.5664, -0.8756, 1.5549, -9.5902, 46.0762
-0.4935, -0.9585, -0.7892, 11.1280, -8.9805, 45.7713
-0.7770, -1.1682, -0.7158, 18.9329, -29.9561, 12.7226
-0.8239, -0.9185, -0.6287, 11.3110, 1.4463, -29.4726
-0.4537, -0.7764, -0.6409, 2.1037, 42.5439, -42.2774
-0.0977, -0.5766, -0.6251, -1.0061, 46.3854, -49.1067
0.0375, -0.3684, -0.5789, -7.9573, 16.4463, -41.1189
0.1667, -0.1530, -0.7293, -8.3841, 6.2024, -12.2774
0.0224, -0.1569, -0.7620, -3.3841, -11.9683, 9.8567
-0.2332, -0.4309, -0.7924, 0.7012, -15.3829, 20.7713
-0.3115, -0.4395, -0.8079, 4.7866, 15.5317, 46.3811
-0.2669, -0.7260, -0.8224, 6.6768, 3.8244, 47.5396
-0.4810, -1.1495, -0.6703, 14.7866, -10.9927, 40.9543
-0.8437, -1.1211, -0.5998, 16.7378, -27.2732, -6.4238
-0.6831, -0.8523, -0.6348, 3.6890, 22.3000, -36.1799
-0.2873, -0.7303, -0.6010, -2.9573, 56.5073, -43.3140
0.0389, -0.5054, -0.5902, -7.8963, 40.8976, -44.1067
0.1673, -0.2757, -0.6260, -19.2988, 3.8854, -30.7530
0.2565, -0.0758, -0.8001, -12.9573, -3.4927, 3.5152
-0.0586, -0.3194, -0.7634, -4.4207, -26.9683, 11.6860
-0.2579, -0.4733, -0.8267, 2.5305, -15.2000, 36.3811
-0.3270, -0.5067, -0.8724, 5.4573, 0.4098, 46.5031
-0.4173, -0.8800, -0.7626, 12.9573, -4.4073, 45.5884
-0.6762, -1.1522, -0.6902, 18.9329, -18.5537, 25.8933
-0.7886, -1.0033, -0.6082, 13.8720, -0.6878, -14.6555
-0.5285, -0.8775, -0.5873, 2.0427, 32.3610, -31.3018
-0.2086, -0.7263, -0.5531, -5.5183, 35.3488, -43.2530
-0.0120, -0.4426, -0.5869, -20.2744, 15.3488, -45.0823
0.0758, -0.2277, -0.7176, -26.7378, 1.7512, -28.2530
0.2490, -0.0327, -0.9113, -13.7500, 6.1415, 1.7470
-0.0294, -0.3009, -0.8001, 1.3720, -13.3707, 20.2226
-0.2182, -0.4335, -0.7346, 5.7012, -3.6756, 42.7226
-0.2923, -0.5150, -0.7969, 5.7622, -5.0171, 54.7957
-0.4208, -0.9479, -0.6970, 11.0061, -6.0537, 50.0396
-0.6145, -1.1606, -0.6633, 13.5061, -18.3707, 20.7104
-0.7260, -0.9495, -0.6140, 6.3110, 0.5317, -20.8750
-0.3913, -0.8544, -0.6947, 0.6402, 35.7146, -33.1921
-0.1745, -0.7088, -0.6338, -1.4329, 25.8976, -52.9482
-0.0078, -0.4191, -0.6266, -4.8476, 9.8000, -49.2287
0.0764, -0.2626, -0.7033, -12.4085, -2.3951, -34.2287
0.2300, -0.0699, -0.8045, -5.2134, 6.2024, 2.5396
-0.0352, -0.3226, -0.7521, -1.0061, -17.7610, 15.8323
-0.2065, -0.4647, -0.7529, 0.8841, -15.3220, 39.1250
-0.3284, -0.5342, -0.8356, -1.6768, -14.7732, 47.6616
-0.3885, -0.9146, -0.7651, 2.5915, -13.0659, 43.4543
-0.7034, -1.1074, -0.7510, 7.1037, -17.3341, 16.8079
-0.6958, -0.9044, -0.7274, 4.9695, 8.8854, -19.0457
-0.4290, -0.7484, -0.7394, 1.5549, 42.3610, -32.6433
-0.1635, -0.6576, -0.6656, -1.7378, 43.3366, -43.6799
0.0945, -0.4645, -0.6808, -2.8963, 30.1659, -29.0457
0.1198, -0.2981, -0.6714, -11.0671, 5.2878, -21.7896
0.1675, -0.1339, -0.7121, -9.0549, 8.6415, 5.8933
-0.0609, -0.3505, -0.6970, -6.0671, -11.5415, 16.5640
-0.1596, -0.4423, -0.7690, -0.0305, -1.9073, 38.8201
-0.2035, -0.4876, -0.8198, 1.6768, 1.2024, 49.3079
-0.3069, -0.8542, -0.7816, 6.9817, -13.1878, 47.2957
-0.5819, -1.1395, -0.6938, 14.4817, -28.6756, 29.0030
-0.7722, -0.9735, -0.6190, 10.5183, -17.1512, -12.1555
-0.4532, -0.7971, -0.6327, 0.8232, 18.1537, -29.0457
-0.2025, -0.6973, -0.5917, -0.4573, 18.2756, -44.1677
0.0126, -0.4995, -0.5868, 0.0305, -4.3463, -48.9238
0.0558, -0.3331, -0.5303, -6.2500, -33.9195, -36.8506
0.1809, -0.0842, -0.7242, -0.7622, -34.1634, 4.1250
-0.1320, -0.2887, -0.7820, 8.6890, -47.9439, 10.4055
-0.3126, -0.4881, -0.9058, 18.6280, -31.9683, 25.4055
-0.3663, -0.6256, -0.8837, 21.6159, -3.7976, 37.6616
-0.3640, -0.9237, -0.8348, 21.2500, -5.2000, 34.5518
-0.5925, -1.1726, -0.7286, 17.5305, -8.2488, 16.2591
-0.7810, -0.9664, -0.6840, 8.5061, 10.9585, -19.1677
-0.5499, -0.8255, -0.7043, 4.7866, 59.8610, -33.6189
-0.2061, -0.7025, -0.5954, 2.5915, 57.1780, -50.6921
0.1075, -0.4708, -0.5240, -8.4451, 31.8122, -41.9116
0.4062, -0.2126, -0.6039, -20.9451, 9.8610, -6.1799
0.0841, -0.1474, -0.5871, -25.2134, -42.1512, 13.5152
-0.3119, -0.3931, -0.8059, -29.2378, -71.1756, 9.0030
-0.3880, -0.4498, -0.9382, -12.8963, -6.5415, 38.2713
-0.3442, -0.5760, -0.9589, -2.2866, 17.9098, 43.3933
-0.2691, -0.9915, -0.8257, 5.8841, 24.1293, 56.9299
-0.5069, -1.1715, -0.6841, 12.3476, -8.1878, 28.5152
-0.7928, -0.9165, -0.5769, 4.1768, -13.8585, -23.1311
-0.5775, -0.7991, -0.6092, -3.8720, 36.9951, -38.6189
-0.1088, -0.5955, -0.5237, -8.4451, 62.1780, -43.3140
0.1634, -0.3869, -0.5317, -11.9207, 19.9220, -40.1433
0.3353, -0.1366, -0.6973, -7.1037, 2.2390, -6.8506
0.0159, -0.2125, -0.6542, 0.5183, -32.4561, 4.0030
-0.2225, -0.4305, -0.7792, 5.1524, -37.7610, 15.0396
-0.3447, -0.4760, -0.7733, 13.9939, 9.4951, 39.9787
-0.2504, -0.5838, -0.8201, 16.3110, 23.3976, 42.6616
-0.3403, -0.8967, -0.7352, 18.9939, 24.2512, 47.8445
-0.5595, -1.0820, -0.7427, 19.9085, -1.2976, 24.2470
-0.6828, -0.9379, -0.6432, 7.4085, 1.3244, -20.1433
-0.4223, -0.8887, -0.6997, 1.0671, 39.8000, -27.9482
-0.1544, -0.7277, -0.6827, 5.8841, 46.0195, -40.7530
0.1202, -0.4924, -0.6729, -0.3963, 12.8488, -43.4969
0.0507, -0.3620, -0.5738, -10.5183, -16.9073, -31.1799
0.1694, -0.1840, -0.8517, -7.8354, -23.5537, -7.0945
-0.1033, -0.3258, -0.7987, 1.7988, -18.2488, 5.4055
-0.2059, -0.4868, -0.8324, 5.8841, -4.8951, 30.5884
-0.2581, -0.5328, -0.8424, 4.1159, 3.0317, 40.8933
-0.4183, -0.8073, -0.8167, 1.4329, -4.0415, 30.0396
-0.5233, -1.1168, -0.7411, 7.1037, 4.8610, 27.8445
-0.6044, -1.0080, -0.6351, 3.3841, 11.1415, -6.4238
-0.3812, -0.8446, -0.6237, -7.6524, 28.5805, -26.3628
-0.1301, -0.7220, -0.6274, -8.2622, 30.4098, -37.0945
0.0088, -0.5362, -0.5164, -10.2134, 18.6415, -45.5701
0.0701, -0.4086, -0.5484, -12.0427, -13.2488, -38.4360
0.1098, -0.2381, -0.6852, -10.9451, -23.4317, -21.9116
0.0271, -0.2096, -0.7496, -1.1280, -21.1756, 6.5640
-0.1236, -0.4605, -0.8227, 5.1524, -21.4195, 16.1982
-0.1409, -0.5176, -0.8502, 9.3598, 3.8244, 42.2957
-0.2657, -0.6663, -0.8280, 6.1280, -6.3585, 41.3811
-0.4452, -1.0350, -0.8091, 4.4817, -16.5415, 30.1006
-0.6463, -1.0971, -0.7327, 6.1890, -9.5902, 5.6494
-0.5248, -0.8628, -0.7028, -1.9817, 15.9585, -21.7896
-0.2291, -0.7355, -0.7258, -4.4817, 31.7512, -33.8018
-0.0778, -0.5698, -0.6231, -6.3720, 26.5683, -45.3872
0.0206, -0.4222, -0.5305, -11.0671, 9.5561, -36.4238
0.2092, -0.2241, -0.7007, -12.3476, -2.4561, -9.5335
0.0784, -0.1957, -0.7175, -6.6768, -13.7976, 10.1006
-0.1110, -0.4448, -0.8070, -0.8841, -18.7366, 22.7835
-0.1581, -0.4816, -0.8206, 6.2500, 2.1780, 49.1250
-0.3151, -0.7394, -0.7747, 4.2378, -11.9073, 39.2470
-0.4625, -1.0924, -0.7643, 11.9817, -24.9561, 32.6006
-0.6615, -1.0119, -0.6349, 16.9817, -20.0171, -1.2409
-0.5119, -0.9617, -0.5789, 6.1890, 0.7756, -25.4482
-0.2460, -0.7744, -0.5988, 1.5549, 12.3000, -39.9604
-0.0709, -0.4720, -0.5966, -5.7622, 2.4220, -52.2165
0.2366, -0.1815, -0.7195, -17.7134, -9.1634, -30.3262
0.4665, 0.0287, -0.8657, -10.8232, -10.8098, 17.1738
0.0701, -0.2639, -0.7988, -3.7500, -54.5293, 19.3689
-0.1834, -0.4779, -0.9335, 8.3841, -59.1634, 54.4909
-0.5245, -0.7475, -0.7079, 7.0427, -61.6634, 40.3445
-0.6907, -1.1876, -0.7534, 10.5793, -52.3341, 33.2104
-0.9378, -1.1389, -0.5981, 9.6037, -22.9439, -8.6189
-0.5938, -0.9210, -0.6785, -1.9207, 20.8366, -34.6555
-0.2525, -0.7335, -0.6190, -5.4573, 31.6902, -47.5823
-0.0738, -0.4729, -0.6438, -7.0427, 9.1902, -54.7774
0.0633, -0.1886, -0.6571, -10.0915, 3.7024, -35.2652
0.3400, 0.0002, -0.7146, -13.0793, 3.0927, 8.8811
0.0246, -0.3132, -0.7126, -13.1402, -43.0659, 18.4543
-0.2387, -0.4390, -0.8370, -1.9817, -32.2122, 51.6860
-0.4700, -0.6358, -0.8562, 4.2988, -41.3585, 48.6372
-0.6376, -1.1279, -0.6836, 11.2500, -31.7854, 45.2226
-0.9644, -1.1746, -0.6270, 12.7744, -30.0780, 1.7470
-0.7750, -0.8911, -0.6771, 1.7988, 22.7878, -34.0457
-0.3090, -0.7286, -0.6815, -1.7378, 52.6049, -40.8750
-0.0357, -0.4976, -0.6674, 0.2134, 36.9341, -47.2774
0.0325, -0.2978, -0.6375, -2.5915, 10.7756, -33.9238
0.2236, -0.0785, -0.7236, -1.3720, 12.8488, 5.0396
-0.0111, -0.3016, -0.6693, -4.9085, -23.0049, 11.1982
-0.2509, -0.5067, -0.7826, 0.8232, -24.3463, 35.8933
-0.3479, -0.5275, -0.7907, 3.1402, -10.6878, 49.2470
-0.4912, -0.8975, -0.7678, 9.4207, -13.1268, 43.3933
-0.7905, -1.2054, -0.6884, 14.8476, -18.9195, 16.7470
-0.8137, -0.9711, -0.6411, 8.1402, 9.7390, -25.3872
-0.4069, -0.7919, -0.6635, 1.1280, 45.6537, -36.8506
-0.1417, -0.6236, -0.6334, -2.9573, 41.4463, -48.1921
0.0143, -0.3974, -0.5948, -3.3232, 22.2390, -37.8262
0.1579, -0.1889, -0.6810, -6.5549, 3.2146, -17.3384
0.0763, -0.1388, -0.6656, -5.3963, -14.8341, 11.0762
-0.1766, -0.4179, -0.7145, -5.4573, -36.6024, 20.0396
-0.3124, -0.4247, -0.7967, 0.8232, -12.2732, 45.1616
-0.3219, -0.5802, -0.8746, 3.8720, -8.0049, 51.0762
-0.4635, -1.0222, -0.7663, 11.1280, -8.5537, 48.5152
-0.7854, -1.2006, -0.6966, 16.3110, -22.1512, 8.8811
-0.7888, -0.9018, -0.6770, 10.8232, 8.8244, -30.3262
-0.4758, -0.7718, -0.6797, 5.2134, 48.8244, -45.8750
-0.1459, -0.6359, -0.5694, 2.1646, 57.5439, -52.7652
0.0873, -0.3876, -0.5501, -2.4695, 32.1780, -36.9116
0.2546, -0.1515, -0.6758, -6.8598, 8.5195, -11.0579
0.0726, -0.2035, -0.6234, -8.3232, -21.4805, 10.7713
-0.2023, -0.4738, -0.7163, -8.2622, -40.7488, 22.4177
-0.3534, -0.4893, -0.7765, -2.4695, -11.7244, 44.7348
-0.3264, -0.7276, -0.8502, 3.3841, -9.7732, 45.5274
-0.5638, -1.1060, -0.7489, 13.5671, -11.9073, 27.6006
-0.8156, -1.0297, -0.6716, 16.1280, -11.7854, -13.0091
-0.5911, -0.8039, -0.7174, 7.7134, 36.3854, -34.7165
-0.2767, -0.6871, -0.6664, 4.0549, 69.4951, -41.1189
-0.0173, -0.4871, -0.6959, 0.8232, 70.8366, -38.9848
0.1757, -0.4025, -0.6730, -1.4329, 65.4098, -22.6433
0.2716, -0.3608, -0.6763, 0.0915, 35.5927, 3.0274
0.0282, -0.5324, -0.6041, -3.6280, -23.3707, 5.8323
-0.2537, -0.5658, -0.6725, -5.2744, -27.0902, 15.0396
-0.2886, -0.5413, -0.7615, -7.2866, -1.4195, 26.0762
-0.2830, -0.6965, -0.7850, -6.1890, 1.5683, 25.9543
-0.3755, -0.9372, -0.7578, 1.8598, -8.6146, 21.8689
-0.5147, -0.9755, -0.6916, 8.7500, -20.8098, -7.2165
-0.4663, -0.7935, -0.6537, 5.3963, -5.4439, -25.6311
-0.2932, -0.6397, -0.6099, -0.3963, 14.0683, -36.5457
-0.0476, -0.4776, -0.5956, -4.5427, 15.4098, -36.9726
0.2110, -0.3074, -0.6196, -5.8232, 9.4951, -10.4482
0.1094, -0.2958, -0.6059, -8.0183, -23.4317, 10.2226
-0.1788, -0.4919, -0.7440, -9.4207, -46.6634, 13.6982
-0.3234, -0.5767, -0.8669, -2.4085, -19.2244, 26.8689
-0.3634, -0.6886, -0.8853, 2.1646, 2.5439, 26.6250
-0.4563, -0.8423, -0.8872, 7.1037, 17.3610, 19.4299
-0.4669, -0.8746, -0.8210, 10.2134, 25.0439, 3.5152
-0.2661, -0.7405, -0.7595, 7.5305, 40.8976, -2.3994
-0.2034, -0.6989, -0.6855, 3.0793, 35.7146, -11.0579
-0.1288, -0.6328, -0.6381, -2.5915, 29.9829, -12.0945
-0.0253, -0.5729, -0.6041, -6.6768, 17.6659, -12.0945
0.0300, -0.5015, -0.5805, -8.7500, -0.7488, -5.0823
-0.0567, -0.4735, -0.6033, -11.0671, -14.0415, 2.6616
-0.1483, -0.5074, -0.7070, -8.6890, -14.8341, 9.5518
-0.1938, -0.5649, -0.7814, -1.9207, -7.7610, 16.1982
-0.2830, -0.6212, -0.8314, 2.0427, -3.0659, 12.7835
-0.3219, -0.7353, -0.8593, 1.1890, 10.1049, 7.9055
-0.2490, -0.9296, -0.7985, 3.5061, 10.2268, 3.3933
-0.2556, -0.8875, -0.6714, 8.0183, 0.7146, -6.9726
-0.3914, -0.7653, -0.6095, 2.1646, -18.2488, -31.6677
-0.3167, -0.5589, -0.5955, -2.3476, 0.7756, -43.9238
0.0658, -0.3252, -0.6000, -5.0915, 13.5195, -27.7043
0.3747, -0.1745, -0.6212, -7.9573, 5.5317, 9.9177
0.1760, -0.2716, -0.6429, -12.8354, -35.2610, 22.7226
-0.0920, -0.4635, -0.7748, -7.4085, -41.9683, 43.8201
-0.3831, -0.5672, -0.9217, -1.3720, -34.2244, 46.3811
-0.4516, -0.8146, -0.8650, -1.9817, -7.1512, 47.1128
-0.6214, -1.0697, -0.8645, 5.8232, -8.6146, 26.6250
-0.8287, -1.0595, -0.8251, 12.9573, 19.2512, -17.3994
-0.5112, -0.8158, -0.7858, 15.8841, 76.5683, -32.7652
-0.1884, -0.7204, -0.6475, 11.8598, 91.5073, -46.9116
0.1349, -0.4382, -0.6155, 11.3110, 73.7024, -36.0579
0.2621, -0.3148, -0.5579, 1.0671, 21.6293, -37.7043
0.4113, -0.1223, -0.6497, -2.0427, 3.7634, 3.4543
0.0248, -0.3437, -0.6253, -8.9939, -30.6268, 10.5274
-0.0903, -0.4893, -0.7704, -6.7378, -21.7244, 42.3567
-0.1864, -0.5288, -0.8213, -7.1646, -10.6878, 47.9665
-0.2731, -0.8594, -0.8862, -6.1890, -6.6024, 43.5762
-0.4935, -1.1205, -0.8941, 7.0427, -8.5537, 26.9299
-0.5914, -0.9553, -0.8054, 7.8354, 14.7390, -12.5823
-0.2565, -0.7757, -0.7464, 5.3963, 49.4341, -20.6921
-0.0888, -0.8230, -0.6145, 7.0427, 24.1902, -35.7530
-0.0920, -0.6527, -0.5323, 6.3110, -8.9195, -49.1677
-0.0216, -0.3662, -0.5545, -8.3841, -22.0293, -57.2774
0.3553, -0.1169, -0.7285, -6.4939, 0.1049, -13.1311
0.1446, -0.1666, -0.6680, 2.4085, -19.1634, 6.3201
-0.0115, -0.4297, -0.7595, 3.4451, -41.2366, 26.5640
-0.2211, -0.4795, -0.7664, 7.0427, -32.7610, 46.3811
-0.3753, -0.6797, -0.7353, -4.0549, -24.7122, 36.1372
-0.4228, -1.0582, -0.7656, -6.1280, -20.8098, 38.8811
-0.5526, -1.0379, -0.7704, -3.6890, -23.9805, 10.2226
-0.4762, -0.8492, -0.7931, -4.9085, -4.8341, -13.2530
-0.2546, -0.8508, -0.7376, -0.6402, 1.8122, -31.1189
-0.1494, -0.7344, -0.5627, 0.0915, -12.2732, -45.9969
-0.0935, -0.6162, -0.4385, -9.7866, -50.2610, -60.2652
0.2475, -0.3330, -0.4985, -13.6890, -69.5902, -33.3140
0.2315, -0.0835, -0.6207, -4.5427, -83.3707, 0.8933
-0.1837, -0.3472, -0.7056, -12.8963, -145.2610, -18.6799
-0.3779, -0.5685, -0.8409, -8.4451, -116.6024, 11.0152
-0.4323, -0.6954, -0.8207, -1.4329, -66.4195, 22.6006
-0.5727, -0.9368, -0.8215, 3.3841, -63.3098, 19.3079
-0.9025, -1.0181, -0.6932, 2.0427, -65.4439, -13.5579
-0.7663, -0.8082, -0.6888, -6.6159, -35.7488, -40.6311
-0.4443, -0.6124, -0.6442, -9.4817, 16.8122, -44.4116
-0.1440, -0.4280, -0.5499, -14.6646, 14.6780, -35.2043
0.3481, -0.1152, -0.7857, -11.6159, 2.0561, 6.9299
-0.1535, -0.2445, -0.6598, -11.4329, -55.0171, 9.4909
-0.4923, -0.5501, -0.8972, -2.5305, -48.8585, 19.0030
-0.5169, -0.5631, -0.7587, 2.4695, 17.8488, 35.7713
-0.3364, -0.8663, -0.6772, -1.6159, 11.0805, 42.9665
-0.7282, -1.0790, -0.6469, 4.3598, -34.1024, 12.9665
-0.9217, -0.8921, -0.6390, -1.1280, -17.1512, -35.2652
-0.6735, -0.7860, -0.5117, -9.8476, 40.1049, -44.8994
-0.1305, -0.4789, -0.6979, -14.4207, 39.3122, -45.6921
0.5795, 0.0163, -0.7968, -1.4939, 61.0805, 25.0396
-0.2638, -0.2985, -0.4776, -15.7012, -55.2000, -5.5701
-0.5700, -0.5258, -0.7785, -5.6402, -64.7732, 6.1982
-0.4667, -0.4391, -0.8090, 6.6159, 26.3854, 26.0762
-0.2152, -0.4745, -0.7829, 4.4817, 47.5439, 50.8933
-0.2265, -0.7439, -0.7514, 2.9573, 6.3244, 63.5762
-0.7677, -1.0164, -0.6422, 7.2866, -60.0780, 21.2591
-1.1680, -1.0641, -0.5139, 1.9817, -24.4073, -26.9726
-0.5415, -0.7841, -0.6132, -1.4939, 76.6902, -22.9482
-0.0562, -0.5823, -0.5383, -4.6646, 69.5561, -24.9604
-0.0858, -0.4557, -0.5096, -15.7012, -10.8098, -39.4116
-0.0365, -0.2401, -0.6707, -12.9573, -20.8707, -25.5701
-0.1216, -0.1451, -0.6081, -1.0061, -15.6268, 8.5152
-0.4133, -0.4527, -0.7549, 2.9573, -34.1024, 8.7591
-0.4052, -0.4758, -0.7169, 10.7012, 6.6902, 27.1128
-0.2702, -0.6408, -0.6970, 6.0061, -2.3341, 35.6494
-0.4341, -0.9044, -0.7773, 7.5915, -44.2244, 35.7104
-1.0400, -1.0017, -0.6549, 7.3476, -61.6634, -13.7409
-0.9036, -0.8454, -0.6671, 1.7378, 11.7512, -27.2165
-0.5029, -0.7446, -0.5653, -7.9573, 45.9585, -41.3628
0.0088, -0.4748, -0.8140, -6.7988, 12.3000, -42.7652
0.1287, -0.1963, -0.6853, 1.6768, -1.9073, -14.4726
-0.2071, -0.1783, -0.5081, 4.7256, -32.5780, 6.1372
-0.5248, -0.4756, -0.6674, -3.0793, -48.1268, -1.4848
-0.3933, -0.5249, -0.7264, 2.5305, 4.6171, 19.1250
-0.2796, -0.6364, -0.7439, 4.8476, 12.5439, 35.9543
-0.5361, -0.8939, -0.7315, 3.9939, -21.4195, 26.3201
-0.7954, -0.9086, -0.6766, 2.8963, -33.8585, -3.3140
-0.9157, -0.8447, -0.6177, -1.9817, 3.6415, -28.8018
-0.5676, -0.7536, -0.6139, -11.7378, 32.1780, -50.8750
0.1483, -0.3358, -0.6434, -2.1037, 55.2878, -14.6555
0.2847, -0.1035, -0.6539, 1.3720, 16.8732, 14.9177
-0.3883, -0.4093, -0.6035, -10.2134, -69.1024, -9.1067
-0.5704, -0.5633, -0.7335, 2.8354, -17.1512, 10.5274
-0.3294, -0.4746, -0.7195, 10.5793, 39.1293, 31.6860
-0.2504, -0.6516, -0.6849, 8.6280, 20.5317, 44.7348
-0.4728, -0.8475, -0.6916, 7.6524, -24.7732, 32.1128
-0.9592, -0.9104, -0.5818, 5.5183, -37.5171, -5.5701
-0.7785, -0.8189, -0.6320, 0.2134, 25.7756, -14.8994
-0.3812, -0.7345, -0.5048, -7.8963, 42.7878, -24.1677
-0.2228, -0.5640, -0.6069, -18.5061, -8.7366, -41.4238
0.2052, -0.1472, -0.7914, -6.0061, 7.6659, -7.9482
-0.2344, -0.2357, -0.4885, -7.4695, -39.5902, 3.3323
-0.5429, -0.5355, -0.7750, -3.0793, -48.3098, 3.6982
-0.4376, -0.4999, -0.7920, 10.9451, 19.9220, 20.7713
-0.2505, -0.5332, -0.7531, 13.0183, 31.5073, 40.3445
-0.4039, -0.7405, -0.7551, 12.0427, -14.7122, 43.8811
-0.9976, -0.9401, -0.5999, 11.0061, -34.4683, 1.6860
-0.9097, -0.8729, -0.6984, 8.1402, 36.2634, -15.7530
-0.4682, -0.7251, -0.5898, 8.0183, 92.4829, -18.1921
-0.1655, -0.6262, -0.5718, 1.7378, 52.7878, -27.4604
-0.1555, -0.4239, -0.5757, -3.5061, 15.4098, -30.2043
0.0848, -0.1922, -0.6478, -1.6768, 24.3122, 3.3323
-0.3060, -0.3814, -0.5868, -11.8598, -28.7366, 0.6494
-0.4334, -0.5016, -0.8052, -0.9451, -6.4195, 12.9055
-0.2834, -0.4420, -0.8209, 11.1890, 33.3976, 30.8323
-0.2651, -0.5554, -0.7482, 11.7378, 27.3610, 44.1860
-0.4834, -0.8187, -0.7529, 18.5061, -12.2122, 43.6982
-0.8986, -1.0291, -0.6927, 20.2134, -25.6268, 3.9421
-0.8413, -0.9269, -0.6294, 9.9085, 43.1537, -22.2165
-0.2433, -0.7869, -0.5724, 6.1890, 86.5073, -15.3872
-0.0465, -0.6057, -0.5577, -1.6159, 33.0317, -27.0945
-0.1621, -0.4401, -0.5883, -10.2134, -9.1634, -31.8506
-0.1324, -0.2832, -0.6953, -10.8841, 1.6902, -17.2774
-0.1519, -0.2800, -0.7211, 0.0915, 4.1293, 3.8201
-0.2435, -0.4807, -0.7488, 9.7256, 1.4463, 15.6494
-0.3331, -0.5043, -0.7248, 13.5061, 15.9585, 26.5640
-0.2243, -0.5101, -0.7954, 14.8476, 14.0683, 44.4299
-0.5450, -0.6980, -0.7641, 16.0671, -8.5537, 34.6128
-0.6832, -1.0950, -0.7169, 14.8476, 4.1902, 23.6982
-0.7328, -1.0597, -0.5732, 3.1402, 20.4098, -13.0701
-0.3320, -0.7899, -0.6273, -4.7256, 46.3244, -14.7165
-0.1886, -0.7263, -0.6230, -8.8110, 14.9829, -31.3628
-0.2084, -0.5150, -0.6696, -4.1768, 1.2024, -40.5701
-0.1281, -0.3615, -0.6012, -1.3110, 11.2634, -31.3628
0.0383, -0.2772, -0.6517, 4.1159, 6.8732, -11.1189
-0.0888, -0.3248, -0.6064, 6.0061, -17.5780, 2.7226
-0.2054, -0.4805, -0.7257, 7.3476, -18.5537, 16.6860
-0.2374, -0.5241, -0.7765, 6.5549, -2.8829, 36.6250
-0.2643, -0.5742, -0.8031, 4.8476, -9.1634, 47.3567
-0.6286, -0.9325, -0.7129, 3.5671, -24.6512, 30.1616
-0.8898, -1.1774, -0.6539, 5.1524, -13.0659, 1.8079
-0.5712, -0.8339, -0.7643, 0.3354, 32.6659, -19.1677
-0.2647, -0.7825, -0.6848, -2.1037, 43.3976, -28.0091
-0.1677, -0.6614, -0.6235, -2.2256, 19.8000, -36.3628
-0.1406, -0.4697, -0.5520, -2.9573, 15.9585, -32.3384
-0.0359, -0.3073, -0.6112, -5.5793, 4.1293, -22.0945
0.0144, -0.2026, -0.6379, 0.7012, 5.5927, 6.8689
-0.1296, -0.4095, -0.6621, 2.8963, -13.0659, 9.2470
-0.2545, -0.4955, -0.7021, 7.8354, -3.0049, 32.4787
-0.2043, -0.5083, -0.7885, 5.3963, -2.8829, 48.6982
-0.4754, -0.6955, -0.7364, 5.9451, -20.3829, 44.4299
-0.6773, -1.1132, -0.6672, 6.6159, -20.3829, 35.0396
-0.7985, -1.0933, -0.6853, 6.4939, -5.5049, -0.9360
-0.5596, -0.8725, -0.7026, -4.2988, 30.7146, -26.8506
-0.2661, -0.7539, -0.7234, -6.1890, 39.2512, -36.9116
-0.1358, -0.5029, -0.6732, -4.9085, 30.7146, -42.1555
-0.0051, -0.3034, -0.6542, -3.3841, 34.0073, -23.3140
0.1164, -0.2029, -0.6903, -1.4329, 23.8854, -0.8750
-0.0819, -0.3639, -0.6328, 2.4085, -7.3951, 6.8689
-0.1898, -0.4817, -0.6780, 5.6402, 3.0927, 31.0152
-0.1567, -0.4191, -0.7716, 4.0549, 6.8732, 47.1128
-0.4072, -0.5923, -0.7758, 7.1037, -1.2976, 45.3445
-0.5163, -0.9485, -0.7788, 11.7378, -0.1390, 44.1860
-0.6586, -1.2149, -0.6412, 11.3110, 0.1659, 11.0762
-0.6259, -0.9329, -0.5811, 2.8354, 16.3854, -18.6799
-0.3071, -0.8194, -0.6291, -4.4817, 45.7756, -28.4970
-0.1193, -0.6264, -0.6302, -6.8598, 31.9951, -42.0945
0.0354, -0.4310, -0.6516, -4.2988, 12.1780, -37.7652
0.0638, -0.3338, -0.6669, -0.3354, 0.7756, -25.8140
0.1045, -0.2454, -0.6931, 6.0061, -2.2732, 4.7957
-0.1135, -0.4224, -0.6488, 4.6037, -17.0293, 13.4543
-0.2043, -0.5034, -0.6578, 2.5305, -8.5537, 36.5640
-0.2722, -0.5225, -0.8274, 2.3476, -25.6268, 40.5274
-0.5237, -0.9210, -0.7088, 1.0671, -27.0293, 26.1372
-0.7091, -1.1827, -0.6765, 3.6280, -19.4683, 7.9665
-0.5524, -0.8812, -0.7448, 0.3354, 11.3854, -20.3872
-0.3259, -0.7929, -0.7045, -1.9207, 25.8976, -31.6677
-0.1456, -0.6803, -0.6754, -2.7744, 4.3122, -46.7287
-0.0739, -0.5134, -0.5527, 2.3476, 3.0927, -40.6921
0.0265, -0.3546, -0.6121, 3.6280, -4.6512, -27.2774
0.0990, -0.2259, -0.6182, 2.7134, -7.3951, 2.4787
-0.0881, -0.3695, -0.6259, -3.8720, -33.3098, 10.8933
-0.2109, -0.5130, -0.7352, -3.4451, -27.1512, 31.5030
-0.2660, -0.5114, -0.7593, -2.4085, -16.4195, 44.6738
-0.4265, -0.7623, -0.8242, 2.2256, -42.2732, 38.1494
-0.7036, -1.1608, -0.7405, 6.7378, -37.3951, 19.3689
-0.7891, -1.0259, -0.6702, 5.3963, -6.0537, -13.6799
-0.4988, -0.8499, -0.6628, -1.6768, 30.4707, -28.4970
-0.2795, -0.7758, -0.6854, -0.3963, 25.4707, -43.5579
-0.1580, -0.5761, -0.5964, 1.9207, 14.9829, -52.1555
-0.0128, -0.4127, -0.5253, 3.5671, 17.3610, -38.4969
0.3582, -0.1325, -0.6842, 6.9207, 16.2634, 5.8933
-0.0953, -0.3469, -0.4431, -6.6159, -47.8829, -0.4482
-0.3007, -0.5045, -0.7076, -9.3598, -57.4561, 15.0396
-0.3666, -0.4693, -0.7951, -2.7134, -12.5171, 33.2713
-0.1879, -0.4849, -0.8524, 2.1646, -8.6146, 48.8201
-0.4359, -0.7070, -0.8188, 9.0549, -38.6146, 46.7470
-0.7495, -1.1486, -0.6733, 5.8232, -36.4195, 27.7835
-0.8098, -1.1008, -0.6554, 0.8232, -11.1756, -2.7652
-0.5688, -0.8371, -0.6832, -2.6524, 39.6780, -18.0091
-0.2817, -0.8576, -0.6180, -1.9207, 36.2634, -32.0335
-0.1903, -0.6543, -0.5740, -0.7012, 17.4829, -44.4726
-0.0473, -0.4459, -0.6094, -5.1524, 19.2512, -41.4238
0.1111, -0.3170, -0.6215, -8.8110, 15.8366, -18.5579
0.0301, -0.2757, -0.6533, -5.7012, -4.1024, 4.3079
-0.1771, -0.4301, -0.6984, -1.3720, -16.6024, 14.4909
-0.2711, -0.4668, -0.7300, 3.6280, -2.6390, 35.8933
-0.3170, -0.5205, -0.8245, 3.2622, -16.1146, 44.7957
-0.5097, -0.8026, -0.6666, -4.4207, -12.3341, 38.9421
-0.6513, -1.0590, -0.7040, -5.0305, -14.5902, 22.4177
-0.7062, -0.9278, -0.6710, -3.4451, 0.1659, -9.7165
-0.4645, -0.8280, -0.7252, -2.2256, 29.4341, -18.4970
-0.2866, -0.7994, -0.6572, -0.7012, 21.3244, -36.4848
-0.2081, -0.5895, -0.6251, 0.8232, 8.0927, -48.4969
-0.0601, -0.4307, -0.5458, 1.0671, 20.0439, -36.1189
0.0819, -0.3023, -0.5865, -2.5915, 1.6902, -15.8140
-0.0141, -0.2642, -0.6185, -2.9573, -19.2244, 6.2591
-0.1903, -0.4469, -0.6982, -3.8110, -31.4195, 15.2226
-0.2681, -0.4799, -0.7634, -0.2744, -13.1878, 37.7226
-0.2647, -0.5542, -0.8146, 1.3110, -17.3341, 51.2591
-0.5330, -0.9346, -0.7016, 3.0793, -37.2732, 39.7957
-0.8615, -1.1643, -0.6858, 1.9817, -33.2488, 4.8567
-0.7547, -0.8754, -0.7225, -1.7988, 16.8122, -24.1677
-0.4002, -0.8552, -0.7096, -3.2622, 39.1293, -35.9969
-0.1998, -0.6633, -0.6434, -0.1524, 26.7512, -48.7409
-0.0693, -0.4517, -0.5955, 3.5061, 27.0561, -42.6433
0.0426, -0.3145, -0.5630, -4.2988, 9.4951, -26.4238
0.0751, -0.1905, -0.6034, -2.8354, 2.4220, 9.3689
-0.1615, -0.4024, -0.6586, -7.0427, -29.6512, 8.3933
-0.3099, -0.4959, -0.7381, 0.9451, -8.9805, 32.6616
-0.1798, -0.4544, -0.7712, 2.2866, 9.6780, 53.8811
-0.4165, -0.6771, -0.7870, 8.0793, -24.4073, 51.1372
-0.7462, -1.0841, -0.6491, 7.1646, -30.5049, 35.0396
-0.8450, -1.0960, -0.6331, 4.1768, -8.0049, -4.5945
-0.5543, -0.8715, -0.6904, -3.7500, 38.1537, -24.7774
-0.2221, -0.7971, -0.6491, -2.5305, 41.0195, -34.6555
-0.1184, -0.6356, -0.5881, -2.4085, 14.5561, -45.0823
-0.0582, -0.4216, -0.6051, -2.4085, 6.3854, -35.5091
0.0086, -0.2749, -0.6204, -3.8720, 0.5927, -17.7043
-0.0681, -0.2260, -0.6531, -1.0671, -10.5659, 3.2713
-0.2208, -0.4192, -0.6926, 1.2500, -18.7366, 12.2957
-0.2713, -0.4595, -0.7386, 6.3110, 2.1780, 35.2835
-0.1972, -0.5097, -0.7903, 6.0671, -3.8585, 53.9421
-0.4768, -0.8511, -0.6975, 6.2500, -29.4683, 46.9909
-0.7833, -1.1807, -0.6638, 5.0915, -30.3829, 21.9909
-0.8382, -0.9616, -0.6354, 2.4695, 5.5317, -14.6555
-0.4565, -0.8013, -0.7035, -0.5793, 46.8732, -26.7287
-0.2089, -0.7056, -0.6555, 0.2744, 36.9951, -39.9604
-0.1088, -0.5216, -0.6063, 3.5671, 24.4341, -42.1555
-0.0088, -0.3840, -0.5815, 2.1646, 17.7878, -25.8750
0.0927, -0.2505, -0.5909, 4.1768, 5.5927, 3.2104
-0.1514, -0.4140, -0.5929, 0.0305, -25.3220, 6.3201
-0.2391, -0.5216, -0.6964, 2.7134, -14.0415, 28.0884
-0.2385, -0.4842, -0.7119, 3.7500, 3.0927, 44.9787
-0.4061, -0.7289, -0.8105, 8.3232, -22.3341, 42.8445
-0.6613, -1.0388, -0.7346, 13.0793, -22.1512, 29.5518
-0.6826, -1.0775, -0.6842, 13.8720, -12.8829, 1.4421
-0.6421, -0.8778, -0.6268, 3.1402, 15.2878, -27.0945
-0.3584, -0.7786, -0.6372, -0.9451, 32.0561, -38.6189
-0.1895, -0.5853, -0.5687, -1.2500, 26.0195, -46.8506
0.0179, -0.3620, -0.6457, -2.4695, 20.8366, -29.5945
0.1598, -0.2471, -0.6743, -2.8354, 9.2512, -4.1677
-0.1333, -0.4008, -0.6251, -2.7744, -24.6512, 4.6128
-0.3291, -0.5690, -0.7315, -0.2744, -21.6634, 17.4177
-0.3051, -0.5144, -0.7680, 3.9939, 19.4951, 36.7470
-0.2612, -0.6440, -0.7957, 5.7622, 5.6537, 43.5762
-0.5690, -0.9403, -0.6974, 11.1890, -8.8585, 30.2226
-0.7023, -1.0709, -0.5886, 9.1768, -0.9317, 2.4787
-0.4733, -0.9031, -0.5480, -1.7378, 23.1537, -14.7165
-0.2288, -0.8277, -0.5548, -9.5427, 20.6537, -25.0823
-0.1878, -0.6740, -0.5788, -9.5427, -5.9317, -39.8994
-0.1372, -0.4561, -0.6154, -5.4573, -11.9073, -37.9482
0.0695, -0.2545, -0.6371, -5.1524, -7.2122, -15.6311
-0.0216, -0.2562, -0.5931, -1.5549, -23.0659, 11.6860
-0.2915, -0.4949, -0.7595, -0.5183, -44.1634, 8.8201
-0.3422, -0.5156, -0.7985, 6.7988, -5.9927, 32.3567
-0.2098, -0.5298, -0.8237, 8.0183, 3.1537, 47.5396
-0.4597, -0.8128, -0.6923, 3.4451, -22.6390, 42.2348
-0.6998, -1.1089, -0.6179, 1.6159, -27.0293, 27.9055
-0.8159, -1.0309, -0.5727, -3.6890, -22.8220, -10.7530
-0.5798, -0.8375, -0.6556, -9.6646, 21.3854, -27.0335
-0.2850, -0.7329, -0.6493, -7.2256, 34.3732, -36.2409
-0.1479, -0.5694, -0.5849, -6.7988, 17.7268, -45.2043
-0.0174, -0.3935, -0.5669, -6.1280, 13.2146, -29.5335
0.1255, -0.2307, -0.6412, -3.0793, 2.7268, -2.8262
-0.1629, -0.3892, -0.6170, -2.5915, -25.0171, 5.1006
-0.2683, -0.5310, -0.7039, 2.2866, -14.1634, 24.6128
-0.2340, -0.5053, -0.7420, 6.0061, 3.4585, 42.5396
-0.4173, -0.6581, -0.7559, 5.2134, -15.3829, 41.9299
-0.6261, -1.0385, -0.7210, 4.1159, -25.0171, 35.8323
-0.7983, -1.1059, -0.6813, 3.6890, -20.8098, 2.4787
-0.7180, -0.8614, -0.6893, -2.4085, 16.7512, -27.0945
-0.3661, -0.8006, -0.6720, -2.4695, 37.6659, -34.5945
-0.1834, -0.6386, -0.5898, -0.0305, 25.7146, -45.6311
-0.0676, -0.4636, -0.6120, 1.2500, 14.0683, -41.1799
-0.0054, -0.3147, -0.5881, 2.2866, 6.6902, -22.0945
0.0039, -0.2517, -0.5704, 4.1768, -2.6390, 6.8689
-0.2131, -0.4522, -0.6255, -0.3354, -23.0659, 8.9421
-0.2416, -0.5466, -0.7201, 1.6159, -0.8707, 35.1616
-0.1748, -0.5018, -0.8268, 5.0305, 2.1780, 49.2470
-0.4855, -0.7771, -0.7270, 2.5915, -23.3707, 38.0274
-0.6913, -1.1229, -0.6802, 2.7744, -28.5537, 27.4177
-0.8225, -1.0594, -0.6060, -0.6402, -12.8829, -11.7896
-0.5845, -0.8636, -0.6573, -8.0183, 25.4707, -30.5091
-0.2634, -0.7286, -0.6591, -6.1280, 41.3854, -37.7043
-0.1315, -0.5582, -0.5484, -5.5793, 24.7390, -43.1311
-0.0062, -0.3677, -0.5598, -3.0183, 14.7390, -25.8750
0.0790, -0.2290, -0.6111, -2.0427, 1.0805, -3.8018
-0.1688, -0.3593, -0.6051, -3.5671, -22.7000, 5.3445
-0.2633, -0.5307, -0.7064, 0.5793, -13.6146, 23.8201
-0.1916, -0.4942, -0.7626, 3.8110, 4.8610, 45.4665
-0.3891, -0.6633, -0.8047, 4.1159, -27.1512, 42.4787
-0.6703, -1.0608, -0.7322, 3.8110, -32.2732, 31.3811
-0.8344, -1.0642, -0.6421, 2.7134, -20.6268, -3.8018
-0.6018, -0.8626, -0.6762, -5.7012, 21.3244, -26.3018
-0.2915, -0.7572, -0.6520, -5.7012, 35.4707, -36.0579
-0.1807, -0.5950, -0.5914, -4.8476, 19.0683, -45.6921
-0.0466, -0.4193, -0.5811, -2.8963, 12.2390, -32.9482
0.0270, -0.2706, -0.6141, -1.8598, -3.8585, -12.3384
-0.1527, -0.3158, -0.5939, -0.9451, -20.8098, 2.2957
-0.2592, -0.4885, -0.6919, -0.2134, -21.9073, 14.9177
-0.2515, -0.4899, -0.7394, 5.7622, 4.1902, 38.1494
-0.2285, -0.5181, -0.8519, 6.7378, -5.5049, 51.4421
-0.5333, -0.8593, -0.6815, 3.1402, -19.5293, 38.2713
-0.7472, -1.1631, -0.6480, 1.7988, -28.1878, 17.4787
-0.8026, -0.9750, -0.6204, -3.8110, -4.2854, -20.3262
-0.4496, -0.8131, -0.6987, -5.9451, 34.5561, -31.9726
-0.1943, -0.6962, -0.6309, -3.0183, 33.0927, -42.2774
-0.0475, -0.5321, -0.6139, -5.3354, 11.2024, -43.2530
-0.0251, -0.3662, -0.5579, -8.8720, 0.8366, -26.9726
0.0654, -0.2062, -0.6690, -5.6402, -3.1268, 0.9543
-0.2247, -0.4086, -0.6778, -2.1037, -21.6634, 3.0274
-0.2982, -0.5159, -0.7436, 8.6280, 1.3854, 27.8445
-0.2003, -0.5148, -0.7432, 8.3232, 14.1902, 43.6372
-0.4107, -0.7268, -0.7888, 9.6646, -14.2244, 41.6250
-0.6928, -1.0365, -0.6919, 6.4939, -22.4561, 23.3323
-0.8485, -1.0169, -0.5726, -0.8232, -6.6024, -11.9726
-0.4920, -0.8310, -0.6483, -10.5793, 28.4585, -23.5579
-0.2243, -0.7852, -0.6262, -12.2256, 27.8488, -35.3872
-0.1157, -0.6243, -0.6379, -8.6890, 9.0683, -42.5823
-0.0881, -0.4729, -0.5773, -7.8963, -1.6024, -37.5823
0.0991, -0.2051, -0.6986, -1.0061, -0.4439, -7.1555
-0.1885, -0.2944, -0.5833, 0.2134, -25.5659, 0.1006
-0.2957, -0.4635, -0.7371, 4.6646, -22.5780, 14.6738
-0.2157, -0.4970, -0.7422, 10.2744, 7.9098, 39.3689
-0.1735, -0.5277, -0.7692, 8.2012, -6.5415, 53.3933
-0.6363, -0.8858, -0.6656, 2.7744, -30.9927, 38.6982
-0.8864, -1.1703, -0.6343, -0.4573, -27.5780, 11.6860
-0.7427, -0.9668, -0.6598, -8.6280, 13.2146, -19.7165
-0.3502, -0.8303, -0.6957, -8.0183, 42.2390, -27.4604
-0.1584, -0.6490, -0.6616, -5.1524, 26.2024, -42.3384
-0.0597, -0.4311, -0.5983, -2.2256, 20.1659, -34.7774
0.0315, -0.2764, -0.6081, -4.3598, 9.0683, -16.3018
-0.0466, -0.2169, -0.5901, -1.1890, -0.5659, 7.6006
-0.2224, -0.4583, -0.6682, 2.2866, -15.9317, 15.1006
-0.2417, -0.4576, -0.7153, 9.9695, 6.9951, 40.2835
-0.2340, -0.4827, -0.8619, 12.2256, -1.6634, 53.0884
-0.4870, -0.7470, -0.7113, 6.9207, -7.8220, 46.3201
-0.6707, -1.1444, -0.6754, 8.2622, -15.8707, 30.0396
-0.8830, -1.0948, -0.5590, 4.9695, -12.2732, -16.3018
-0.5501, -0.8544, -0.6851, -1.7378, 34.9220, -30.3872
-0.2463, -0.7379, -0.6515, -3.3841, 42.7878, -45.9969
-0.0758, -0.5185, -0.6216, -0.0305, 26.2024, -46.8506
-0.0095, -0.3178, -0.5919, 2.4695, 17.4220, -29.7774
0.1372, -0.1794, -0.6788, 5.8232, 8.7024, -1.7896
-0.1403, -0.3662, -0.5875, 6.7378, -18.6756, 3.3323
-0.2147, -0.5258, -0.6868, 10.7012, -6.4195, 31.7470
-0.1555, -0.5104, -0.7175, 8.2012, -2.2732, 49.9177
-0.4088, -0.8010, -0.7225, 7.6524, -26.8463, 40.8933
-0.6615, -1.0857, -0.7313, 8.0183, -32.2122, 25.3445
-0.9025, -1.0435, -0.6545, 6.1890, -13.9805, -10.7530
-0.5516, -0.8862, -0.7057, -3.4451, 31.6902, -26.5457
-0.2932, -0.8201, -0.5978, -5.7622, 36.7512, -40.0213
-0.1512, -0.6289, -0.6035, -3.0183, 14.2512, -47.6433
-0.0878, -0.4130, -0.6091, -2.8354, 11.8122, -43.6189
0.0842, -0.2135, -0.6210, -1.9817, 20.4707, -13.1311
0.0521, -0.2601, -0.6102, 1.3720, 0.5317, 12.9055
-0.1258, -0.5099, -0.6530, 1.5549, -21.7854, 24.9177
-0.1992, -0.4816, -0.7454, 6.1890, -3.7366, 51.8689
-0.4442, -0.6846, -0.7607, 5.7622, -23.9195, 42.7835
-0.6101, -1.0850, -0.7300, 6.5549, -20.2610, 34.8567
-0.8422, -1.1971, -0.6011, 7.1037, -12.9439, -1.7896
-0.6156, -0.9194, -0.6590, -1.2500, 23.8854, -28.2530
-0.2740, -0.7626, -0.6845, -4.1159, 47.4829, -37.5823
-0.1253, -0.5487, -0.6490, -2.0427, 35.1049, -45.8140
-0.0407, -0.3973, -0.5777, -3.6890, 22.2390, -32.3384
0.1647, -0.1920, -0.6522, -0.9451, 27.0561, -1.4848
0.0093, -0.3600, -0.5693, -3.2012, -4.8341, 12.1128
-0.1376, -0.5676, -0.6407, -1.5549, -8.9805, 34.3079
-0.1909, -0.5092, -0.7563, -1.4329, -12.5780, 47.7835
-0.4564, -0.7415, -0.7313, 3.1402, -19.9561, 38.6372
-0.6005, -1.1040, -0.6802, 7.2256, -13.8585, 29.9787
-0.6752, -1.1100, -0.6646, 9.2988, -8.4317, -4.1067
-0.5531, -0.9043, -0.6519, 0.2134, 15.6537, -29.4116
-0.2877, -0.7939, -0.6243, -2.6524, 36.6902, -38.4969
-0.1042, -0.5578, -0.6138, -3.5671, 21.6902, -48.3140
-0.0199, -0.4104, -0.5858, -4.4207, 7.8488, -35.3872
0.0837, -0.2451, -0.6685, -2.2256, 1.9341, -16.4238
0.0541, -0.2742, -0.6617, 2.3476, -4.8341, 10.7104
-0.1502, -0.5306, -0.6695, 1.5549, -17.0902, 26.0152
-0.2306, -0.5365, -0.6777, -1.4939, -6.7244, 46.9909
-0.3223, -0.6922, -0.7977, -2.2866, -32.2732, 42.4177
-0.5865, -1.0354, -0.7393, -2.8963, -26.1756, 27.6616
-0.7650, -1.0745, -0.6763, -0.2744, -9.9561, -1.3018
-0.5064, -0.9047, -0.6999, -3.3841, 20.9585, -21.3628
-0.2847, -0.8353, -0.6172, -3.6280, 22.9707, -36.4238
-0.1380, -0.6879, -0.5975, -5.2134, 8.4585, -48.3750
-0.0589, -0.5443, -0.5543, -4.8476, 0.7146, -48.6189
0.0656, -0.3409, -0.5525, -4.2988, -10.6268, -28.0701
0.1382, -0.1897, -0.6542, -0.6402, -21.2366, 4.2470
-0.1698, -0.3690, -0.6284, -3.6890, -46.9073, 5.3445
-0.2727, -0.5145, -0.7485, -0.5183, -25.5049, 32.0518
-0.1970, -0.5172, -0.7343, 0.0305, -10.0780, 48.4543
-0.4290, -0.7224, -0.8145, 3.5671, -47.3341, 42.6616
-0.7402, -1.0110, -0.7684, 5.0305, -42.8829, 31.0762
-0.8278, -1.0256, -0.6927, 3.3232, -16.0537, -1.6677
-0.5878, -0.8665, -0.7395, 1.2500, 21.2024, -20.8750
-0.3248, -0.7601, -0.6889, 4.7256, 33.8244, -33.2530
-0.1773, -0.6645, -0.5786, 6.5549, 16.9951, -41.2409
-0.0587, -0.5047, -0.5359, 4.3598, 9.0073, -36.8506
0.0189, -0.3694, -0.5284, -3.6280, -0.0171, -19.8384
0.0183, -0.2816, -0.6547, -3.3232, -8.6146, 5.6494
-0.2196, -0.4975, -0.6986, -0.0305, -24.1024, 9.4909
-0.2448, -0.5314, -0.7290, 5.1524, -1.1146, 33.5762
-0.1770, -0.5300, -0.7676, 6.9817, 8.5805, 47.7835
-0.4701, -0.7710, -0.6396, 2.0427, -16.4195, 36.8079
-0.6747, -1.1596, -0.6165, -2.1646, -27.7000, 24.7957
-0.7400, -1.1234, -0.5756, -8.8110, -20.7488, -15.3872
-0.5361, -0.8626, -0.6691, -12.9573, 13.5805, -34.4726
-0.2662, -0.7514, -0.6418, -11.1280, 23.0927, -49.5945
-0.0673, -0.5293, -0.6221, -6.6159, 9.6171, -50.3872
-0.0202, -0.3546, -0.5690, -4.7256, -3.2488, -31.7287
0.0658, -0.2139, -0.6542, -0.0305, -11.2976, -4.8994
-0.2174, -0.3856, -0.6207, -2.4085, -32.2122, 0.0396
-0.3134, -0.5152, -0.7001, 2.0427, -11.4805, 24.7957
-0.2144, -0.5902, -0.6239, 0.0915, 0.5317, 44.1860
-0.3410, -0.8563, -0.6705, -2.9573, -50.1390, 40.8933
-0.8287, -1.0901, -0.6224, -8.8720, -63.3707, 8.3323
-0.8640, -0.9090, -0.7263, -11.9817, -12.3951, -19.8384
-0.4984, -0.7846, -0.7900, -6.7988, 34.6171, -32.0335
-0.1715, -0.5818, -0.7705, 2.2866, 47.7268, -37.3384
0.0156, -0.4732, -0.5360, -2.6524, 37.4829, -25.8140
0.1069, -0.3306, -0.5774, -7.3476, 1.0195, -7.8872
-0.1929, -0.3639, -0.5732, -9.6037, -29.7122, 0.5274
-0.3314, -0.5141, -0.7084, -2.8354, -17.8220, 12.8445
-0.2593, -0.4902, -0.6910, 2.6524, 8.0317, 36.2591
-0.1625, -0.6636, -0.6546, -2.4695, 5.7146, 48.2713
-0.5282, -0.9265, -0.6680, -2.5915, -44.7732, 34.1860
-0.8619, -1.0473, -0.7222, -0.6402, -49.5902, 2.2957
-0.8486, -0.9232, -0.6877, -5.0305, 2.4829, -27.8872
-0.4397, -0.7548, -0.6990, -3.0183, 51.0195, -34.1677
-0.1587, -0.5737, -0.6780, -0.2744, 42.1171, -41.7287
-0.0322, -0.4066, -0.5820, 0.5793, 29.6780, -30.3262
0.0148, -0.2760, -0.6189, -0.6402, 3.2756, -10.5091
-0.2088, -0.2847, -0.6346, 0.8841, -10.2610, 0.5274
-0.2575, -0.4864, -0.7228, 4.7256, 3.1537, 16.1982
-0.2386, -0.5104, -0.7963, 10.8232, 24.9220, 34.0640
-0.2368, -0.5640, -0.9054, 14.4207, 6.2634, 42.6006
-0.5458, -0.8802, -0.8138, 20.5183, -1.6634, 34.6128
-0.7330, -1.0706, -0.6791, 24.0549, 6.4463, 11.0762
-0.6904, -1.0328, -0.5080, 16.1890, 33.5195, -16.7287
-0.3621, -0.8814, -0.4940, 2.8354, 59.2512, -30.7530
-0.1155, -0.6641, -0.5146, -6.0061, 53.8244, -38.4360
-0.0025, -0.4516, -0.5848, -16.1890, 29.2512, -35.6311
0.1241, -0.2423, -0.6824, -13.2012, 27.1780, -10.5091
0.1057, -0.2600, -0.7242, -5.0915, 12.7878, 9.3079
-0.0836, -0.5211, -0.6798, 1.4939, -3.4317, 25.4055
-0.1633, -0.5031, -0.7172, 1.2500, 6.3854, 46.8689
-0.3397, -0.6458, -0.8103, 4.6037, -16.4805, 42.3567
-0.5061, -1.0204, -0.7359, 7.3476, -11.6024, 37.8445
-0.6876, -1.1920, -0.5952, 13.1402, -8.3098, 8.6982
-0.5678, -0.9028, -0.5900, 4.9085, 15.5317, -25.9360
-0.2432, -0.7858, -0.6018, -1.1280, 31.1415, -35.0823
-0.0691, -0.6069, -0.5717, -3.9939, 17.5439, -42.7043
0.0118, -0.4130, -0.5827, -6.5549, -7.5171, -35.3262
0.0880, -0.1861, -0.7000, -4.3598, -2.7000, -11.1799
0.0706, -0.2313, -0.7286, 1.4329, -11.4195, 16.5030
-0.1242, -0.4848, -0.6956, 0.4573, -27.8829, 31.7470
-0.2068, -0.5031, -0.7378, -0.5183, -10.3829, 59.3689
-0.3688, -0.6318, -0.8968, -1.0671, -38.6756, 51.1982
-0.5986, -1.0526, -0.7079, 1.0671, -31.2366, 38.6372
-0.7327, -1.2006, -0.6000, 8.5671, -18.4317, 14.0640
-0.5458, -0.9350, -0.5829, 3.9939, 11.6293, -17.8262
-0.2809, -0.7944, -0.5523, -1.3110, 21.0195, -33.6799
-0.1217, -0.5523, -0.5099, -5.3963, 13.7024, -42.2774
0.0606, -0.3020, -0.6255, -9.7256, -5.8707, -24.7774
0.1078, -0.1591, -0.7225, -8.2012, -16.2976, 1.3811
-0.1315, -0.3164, -0.7176, -4.4207, -43.6756, 16.6250
-0.3413, -0.4951, -0.7822, 1.2500, -34.4683, 40.4055
-0.3639, -0.4846, -0.8082, 3.2012, -16.1146, 54.7957
-0.5586, -0.7877, -0.7685, 5.3963, -30.5049, 39.9787
-0.7125, -1.1515, -0.7084, 9.4207, -14.8951, 22.6616
-0.6673, -1.0006, -0.5560, 9.8476, 8.2146, -7.6433
-0.4086, -0.9519, -0.5009, 5.3354, 18.8854, -19.7165
-0.2957, -0.8496, -0.4728, -0.1524, -5.8707, -39.0457
-0.2696, -0.5505, -0.5388, -4.0549, -19.0415, -53.6189
-0.1379, -0.2501, -0.6500, -5.5793, -5.6268, -30.3872
0.2088, 0.0220, -0.8867, 5.8841, 11.9951, 17.1128
-0.1809, -0.2876, -0.6730, 2.6524, -40.6878, 18.5152
-0.4671, -0.5490, -0.7482, 4.2988, -39.1024, 44.0640
-0.4202, -0.7168, -0.7252, 2.2256, -22.0293, 52.4177
-0.6303, -1.0540, -0.6915, 9.9695, -29.5293, 32.3567
-0.8577, -1.1120, -0.6495, 10.3963, -13.6756, 6.0152
-0.6440, -0.8552, -0.6113, 0.7012, 29.4951, -18.9848
-0.3356, -0.6977, -0.5748, -5.3354, 33.0317, -24.3506
-0.2414, -0.5563, -0.5458, -8.5061, 17.6659, -26.7896
-0.1631, -0.3969, -0.5275, -6.7988, 9.6171, -15.4482
-0.1256, -0.2855, -0.5602, -4.7866, -7.8220, 1.9909
-0.3359, -0.3587, -0.5430, -3.3232, -31.9683, 9.3689
-0.4383, -0.5193, -0.6608, -3.0793, -29.9561, 15.5884
-0.3901, -0.5762, -0.7446, 2.5305, -3.9805, 28.1494
-0.3625, -0.6455, -0.7808, 5.5793, -6.7854, 31.5030
-0.5789, -0.8591, -0.7876, 11.3720, -25.4439, 18.5152
-0.6987, -0.9655, -0.7041, 12.2866, 1.6902, 2.5396
-0.5975, -0.9530, -0.5919, 4.4817, 26.3854, -12.5823
-0.3958, -0.8396, -0.5777, -2.3476, 37.5439, -13.9848
-0.3511, -0.7584, -0.5036, -9.7866, 12.8488, -25.2043
-0.4444, -0.6417, -0.5063, -14.1768, -9.5293, -36.0579
-0.3427, -0.4299, -0.5258, -14.1768, -2.5171, -35.3262
-0.1882, -0.2810, -0.5767, -11.9817, 1.0805, -13.4970
-0.0962, -0.2408, -0.6080, -8.9329, -16.7854, 7.6616
-0.3107, -0.3499, -0.6693, -7.2866, -39.6512, 14.1250
-0.4024, -0.4882, -0.7786, -1.9817, -15.0171, 31.9299
-0.3433, -0.5383, -0.8405, 4.0549, 0.3488, 48.8201
-0.4987, -0.7717, -0.7748, 3.5671, -21.4805, 37.2957
-0.7381, -1.1031, -0.6779, 4.2988, -15.4439, 21.6860
-0.8190, -1.0782, -0.6356, 5.3354, -2.5780, -4.7774
-0.6962, -0.8695, -0.5864, -0.0915, 30.0439, -29.8994
-0.4409, -0.7017, -0.5831, -3.3232, 41.8732, -39.8384
-0.3286, -0.4801, -0.5346, -4.8476, 36.2634, -50.0213
-0.1348, -0.2684, -0.5919, -3.9329, 27.8488, -30.2043
0.0045, -0.1666, -0.5998, -2.2866, 12.7268, -5.5701
-0.1702, -0.2833, -0.6049, -1.7378, -16.7854, 10.7713
-0.3156, -0.5112, -0.7036, 0.2134, -12.5171, 29.0640
-0.3192, -0.5619, -0.7374, 1.6159, 2.6049, 43.2713
-0.3854, -0.6674, -0.8590, 7.2256, -16.9683, 47.2957
-0.6723, -0.9807, -0.7521, 11.0671, -17.6390, 29.4299
-0.7904, -1.0108, -0.6535, 10.6402, 2.2390, -0.1433
-0.6454, -0.8118, -0.6019, 3.5671, 30.7756, -22.2165
-0.3531, -0.7106, -0.6191, -2.3476, 41.5683, -28.0091
-0.2321, -0.5719, -0.5373, -5.1524, 32.3000, -31.3018
-0.1500, -0.4436, -0.5508, -7.6524, 13.0927, -24.7165
-0.0789, -0.3682, -0.6104, -4.7866, 0.9585, -5.9970
-0.2512, -0.4348, -0.5545, -3.4451, -23.0659, 2.2348
-0.4209, -0.5778, -0.6177, -6.3110, -32.1512, 2.4177
-0.4388, -0.6460, -0.7023, -5.0305, -17.2732, 6.7470
-0.4033, -0.6759, -0.7792, 0.5183, -8.1268, 3.8811
-0.4517, -0.6762, -0.7977, 3.7500, -1.4805, 0.5274
-0.4363, -0.6810, -0.7451, 3.9939, 8.5195, -4.2287
-0.4122, -0.6818, -0.6763, -0.0305, 19.3732, -6.5457
-0.3563, -0.6584, -0.6513, -3.3841, 30.1049, -8.8018
-0.2348, -0.7428, -0.5665, -4.1159, 18.3976, -8.8018
-0.2508, -0.8424, -0.5287, -0.3963, -14.9561, -12.5823
-0.3468, -0.6908, -0.5590, -0.2744, -31.5415, -25.0213
-0.3671, -0.5039, -0.5946, -2.4695, -22.7000, -23.0091
-0.2746, -0.3719, -0.6926, -4.8476, -21.7854, -11.5457
-0.2589, -0.1823, -0.7993, -0.7012, -18.9195, 9.1860
-0.3353, -0.2693, -0.8132, -0.0305, 3.0317, 24.9787
-0.2865, -0.5187, -0.7419, -3.1402, 17.6049, 50.5274
-0.2081, -0.7681, -0.8834, -0.8232, -21.1756, 62.4787
-0.7576, -1.2432, -0.5933, 9.4207, -43.0049, 27.5396
-1.0183, -1.1548, -0.5759, 11.1890, -15.0780, -14.9604
-0.6941, -0.8963, -0.5366, 5.7622, 44.7390, -44.1677
-0.3507, -0.6618, -0.5176, 3.1402, 44.9829, -59.8384
-0.1410, -0.3036, -0.5491, -0.9451, 28.9463, -55.9360
0.0192, -0.0975, -0.6141, -6.0061, 24.2512, -20.8140
0.0785, 0.0059, -0.7549, -1.1890, 3.6415, 20.1006
-0.2285, -0.3482, -0.6860, 2.4695, -20.4439, 39.3079
-0.4011, -0.4986, -0.7568, 6.4329, -13.4927, 58.3933
-0.5033, -0.7332, -0.7906, 8.8720, -25.3220, 56.6250
-0.7552, -1.1973, -0.5932, 8.7500, -23.1268, 34.0031
-0.8226, -1.1363, -0.6107, 6.5549, -8.4317, 2.4177
-0.6238, -0.9626, -0.5680, -3.8720, 16.7512, -31.1189
-0.3377, -0.7935, -0.5895, -7.4085, 22.7878, -43.5579
-0.3037, -0.5170, -0.5848, -8.2012, 10.2878, -52.0335
-0.1461, -0.1823, -0.6869, -7.2256, 16.9341, -32.1555
0.0270, -0.0372, -0.7176, -3.4451, 19.1902, 0.9543
-0.1839, -0.2813, -0.6389, 0.8232, -9.8951, 19.4909
-0.2951, -0.4732, -0.6807, 3.8110, -8.6756, 44.8567
-0.3293, -0.5331, -0.7308, 2.0427, -20.0171, 54.7348
-0.6311, -0.9291, -0.6864, 0.6402, -21.9683, 42.4787
-0.7672, -1.2313, -0.6552, 5.8232, -17.8220, 19.3079
-0.7899, -1.0483, -0.5787, 2.4085, 1.0195, -24.4726
-0.4876, -0.8352, -0.6026, -3.5671, 24.8610, -38.0701
-0.3366, -0.6331, -0.5994, -4.3598, 20.8976, -54.8384
-0.2307, -0.3295, -0.6048, -3.5671, 14.1902, -44.2287
-0.0291, -0.0967, -0.6909, -1.2500, 19.9829, -14.8994
-0.0227, -0.1348, -0.6708, -0.2134, -3.3707, 12.1738
-0.3405, -0.4798, -0.6444, -1.4329, -32.5780, 21.9299
-0.4331, -0.5633, -0.6577, 0.0915, -9.2854, 37.0518
-0.3725, -0.6913, -0.7587, 2.7134, -18.5537, 41.3811
-0.6820, -0.9259, -0.7245, 10.7012, -22.2732, 20.7104
-0.7197, -0.8771, -0.7270, 9.4817, 8.0317, -1.6067
