ax,ay,az,gx,gy,gz
-0.0946, -0.4110, -0.8908, 0.2134, -0.2000, 0.4055
-0.0935, -0.4084, -0.8868, 0.3354, 1.2024, 0.5274
-0.0909, -0.4116, -0.8908, 1.1280, -0.3220, -0.1433
-0.0968, -0.4168, -0.8842, 1.6768, -0.7488, 0.1616
-0.0889, -0.4149, -0.8889, 1.3110, 0.2878, -0.9970
-0.0900, -0.4102, -0.8945, 0.5183, -0.0780, -0.9970
-0.0914, -0.4138, -0.8882, 0.6402, 0.6537, -1.1799
-0.0799, -0.4106, -0.8920, 0.7012, -0.4439, -1.6067
-0.0855, -0.4063, -0.8964, 0.7012, -0.6878, -1.1189
-0.0922, -0.4041, -0.8864, 0.5183, 0.8366, -1.0579
-0.0883, -0.4185, -0.8889, 0.3354, -0.4439, -0.7530
-0.0866, -0.4160, -0.8902, 0.3354, 0.4707, -1.6677
-0.1085, -0.4090, -0.8653, -0.4573, 2.9098, -1.1189
-0.0778, -0.4138, -0.8614, -0.3354, 6.5683, 0.0396
-0.0818, -0.4102, -0.8536, -0.2744, 0.7146, 1.0152
-0.0855, -0.4177, -0.8794, 1.1890, -1.6024, -0.6921
-0.0979, -0.4165, -0.8553, 1.4329, -3.4317, -0.0823
-0.1013, -0.4277, -0.8838, 1.7378, -3.0659, -2.5823
-0.1094, -0.4274, -0.9114, 1.4329, -5.8098, -5.8140
-0.0737, -0.4503, -0.8642, 1.1890, -5.5659, -6.9726
-0.0727, -0.4446, -0.8618, 0.0305, -6.6024, -8.0701
-0.0482, -0.4202, -0.9086, 1.7378, -18.6756, -7.9482
-0.1150, -0.4363, -0.8551, 2.1037, -18.8585, -10.2652
-0.1116, -0.4385, -0.8513, 0.8232, -10.2000, -9.4726
-0.0700, -0.4374, -0.8525, -0.7622, -8.6756, -9.4726
-0.0621, -0.4113, -0.8697, -3.2622, -17.6390, -10.6921
-0.0840, -0.4293, -0.8834, -3.3232, -26.7854, -11.9116
-0.1413, -0.4235, -0.9028, -4.5427, -17.9439, -12.3384
-0.1531, -0.4168, -0.8794, -5.3963, -4.7122, -12.3384
-0.1285, -0.4124, -0.9027, -8.3232, -2.6390, -11.1189
-0.1184, -0.4260, -0.8784, -9.1768, -9.6512, -13.9848
-0.1275, -0.4274, -0.8681, -9.2378, -12.7000, -15.7530
-0.1177, -0.3930, -0.9260, -5.8841, -6.3585, -13.1921
-0.1547, -0.4052, -0.9193, -6.0061, -0.6268, -12.6433
-0.1199, -0.4325, -0.8383, -7.5305, 5.2878, -11.7287
-0.1118, -0.4070, -0.9049, -9.9085, -1.6024, -13.6799
-0.1387, -0.3951, -0.9335, -9.6646, -1.7854, -15.7530
-0.1594, -0.4228, -0.9266, -9.1159, 2.3610, -17.9482
-0.1498, -0.3987, -0.9456, -11.1890, 6.6902, -18.9238
-0.0803, -0.3944, -0.9499, -10.5793, 6.3244, -21.4848
-0.0564, -0.4099, -0.9124, -11.5549, 5.8366, -20.3872
-0.0568, -0.3564, -0.9553, -13.3232, 12.1780, -15.3872
-0.1400, -0.3718, -0.8932, -11.9817, 38.7634, -15.3872
-0.0752, -0.3569, -0.8938, -16.6159, 44.2512, -18.0091
0.0373, -0.2757, -1.0120, -8.0793, 26.1415, -15.4482
-0.0274, -0.3361, -0.8954, -3.5671, 26.0195, -14.2287
-0.0138, -0.3242, -0.9026, -2.7134, 25.3488, -8.8628
-0.0185, -0.3374, -0.9363, 2.0427, 11.2634, -13.0701
-0.0590, -0.3680, -0.9525, 10.3354, 1.9341, -14.2896
-0.0437, -0.3781, -0.9162, 16.1280, 7.0561, -15.7530
-0.0051, -0.3873, -0.8808, 15.9451, 9.5561, -18.0701
0.0104, -0.3905, -0.8989, 15.4573, -0.0780, -21.9726
0.0149, -0.3918, -0.8867, 14.4207, -4.3463, -23.5579
0.0442, -0.3480, -0.8718, 11.2500, 4.6780, -22.8262
0.0077, -0.3719, -0.8593, 7.9573, 1.9341, -25.3872
0.0875, -0.3894, -0.8924, 7.4695, -29.8341, -29.3506
0.0280, -0.3739, -0.9336, 18.3232, -63.9195, -30.0213
-0.0927, -0.3947, -0.9184, 26.7378, -64.6512, -37.8872
-0.1736, -0.4520, -0.8708, 29.1159, -35.9317, -38.8018
-0.1047, -0.4855, -0.7873, 30.1524, -6.8463, -40.2043
0.0434, -0.3782, -0.8036, 25.7622, -8.0659, -46.3018
0.0674, -0.3996, -0.8974, 22.7744, -14.1024, -47.5823
0.3508, -0.3774, -0.9251, 22.5915, -4.1024, -25.0213
0.4978, -0.3903, -0.8176, 14.0549, 20.6537, 13.3933
0.4096, -0.4089, -0.7753, -4.1768, 35.1659, 50.6494
0.1902, -0.4055, -0.7684, -27.3476, 31.9341, 66.1372
0.0545, -0.4233, -0.8293, -46.7988, -12.8220, 64.1860
-0.4589, -0.3814, -1.0482, -34.5427, -61.2976, 32.7835
-0.8488, -0.5588, -1.1331, -14.3598, -81.8463, -23.3140
-0.6156, -0.4553, -1.0772, 6.0671, 2.3610, -45.1433
-0.2506, -0.4864, -0.9309, 17.4085, 41.8122, -64.6555
0.4357, -0.3009, -0.8947, 27.3476, 50.4098, -39.1067
0.5519, -0.2415, -0.6686, 20.0915, 30.7756, -24.1067
0.5334, -0.3140, -0.6505, 1.7378, 14.0073, 20.2226
0.2437, -0.3104, -0.7510, -13.7500, 5.8976, 38.3323
0.0352, -0.3503, -0.7538, -28.0183, 13.2146, 52.9055
-0.0205, -0.4903, -0.8718, -36.7378, -26.9073, 48.5152
-0.6171, -0.5878, -1.1089, -13.4451, -81.1146, -1.4238
-0.6607, -0.5991, -1.0766, 3.6280, -42.2732, -39.4116
-0.4114, -0.4866, -0.9969, 15.3354, 40.9585, -53.9238
0.2198, -0.3535, -0.9861, 21.1890, 36.8122, -53.9238
0.4842, -0.2404, -0.6614, 16.1280, 37.0561, -27.5213
0.6308, -0.1748, -0.6408, -4.9085, 23.0927, 11.8689
0.3177, -0.2701, -0.7523, -19.9695, -5.8098, 40.2226
0.0553, -0.3873, -0.7112, -32.2866, -3.9195, 60.4665
-0.0612, -0.4820, -1.0828, -30.2134, -33.0659, 59.9177
-0.7606, -0.5726, -1.1069, -8.0183, -67.6390, 1.6250
-0.6712, -0.5546, -1.0563, 9.6646, -27.3951, -28.9848
-0.3467, -0.4549, -1.0333, 20.5183, 42.1780, -47.7652
0.1129, -0.3663, -0.9081, 23.0183, 31.6902, -59.1677
0.4533, -0.2337, -0.7086, 23.3841, 48.4585, -22.0945
0.7048, -0.2117, -0.6481, 4.7256, 20.2268, 5.7104
0.3963, -0.3154, -0.7200, -7.4085, -4.3463, 42.1128
0.1111, -0.3624, -0.8004, -20.6402, -7.3341, 59.8567
-0.1057, -0.5420, -0.9327, -24.7256, -38.6756, 53.4543
-0.7349, -0.5664, -1.1892, -2.7744, -79.4073, 2.1128
-0.7417, -0.5646, -1.0318, 10.8841, -37.2122, -39.7774
-0.3279, -0.4674, -0.9680, 16.8598, 35.8366, -52.4604
0.1761, -0.3009, -0.9626, 25.2134, 38.4585, -49.9604
0.4369, -0.2462, -0.7136, 24.1159, 41.6293, -22.3384
0.6369, -0.2642, -0.6467, 7.1646, 33.7634, 14.1860
0.4129, -0.3374, -0.7058, -10.2134, 19.3122, 52.2957
0.1277, -0.4104, -0.8385, -22.5305, 12.4220, 70.4665
-0.2390, -0.5824, -0.9629, -23.3841, -35.3829, 52.4177
-0.8015, -0.5817, -1.1804, -2.4695, -80.8098, -2.6433
-0.8030, -0.5521, -1.0538, 13.9329, -21.0537, -53.9848
-0.2635, -0.4505, -1.0572, 28.0793, 47.1780, -73.5579
0.3528, -0.3252, -0.7339, 35.0915, 97.2390, -43.9238
0.6478, -0.2397, -0.6209, 24.2378, 64.7390, -22.8872
0.7760, -0.3142, -0.5253, -1.6159, 34.7390, 23.3933
0.4942, -0.3425, -0.6668, -20.3963, 10.1659, 58.3933
0.1486, -0.4430, -0.7599, -37.6524, -8.9195, 75.1006
-0.3657, -0.5571, -1.0690, -29.6037, -74.8341, 49.6128
-1.0328, -0.5946, -1.2260, 4.3598, -107.3951, -31.2409
-0.7634, -0.5369, -1.0966, 23.3232, 9.4951, -55.6311
-0.1505, -0.5012, -0.9030, 29.4207, 70.1049, -77.7652
0.6519, -0.2645, -0.7767, 34.4207, 78.8244, -37.3994
0.8011, -0.2291, -0.5666, 14.8476, 34.2512, -17.9482
0.7087, -0.3668, -0.5801, -11.7378, -0.2000, 38.7591
0.3006, -0.3185, -0.6952, -27.5915, -25.2610, 55.1006
-0.0711, -0.4301, -0.8022, -36.6768, -23.7366, 71.6250
-0.5032, -0.5847, -1.0727, -21.9817, -64.7122, 45.1616
-0.9091, -0.6206, -1.1526, 6.0671, -73.4927, -31.9116
-0.5978, -0.5421, -1.0281, 20.5793, 17.4220, -43.7409
-0.0955, -0.5009, -0.8896, 25.5793, 41.5683, -78.3140
0.5465, -0.2985, -0.7993, 29.4207, 53.8854, -37.0945
0.7340, -0.2431, -0.5850, 13.5671, 32.4829, -16.7287
0.7506, -0.3543, -0.5864, -8.1402, 14.4951, 35.8323
0.3252, -0.3770, -0.6780, -22.2866, -2.7610, 63.4543
0.1186, -0.4184, -0.7220, -38.3841, 1.0805, 84.0031
-0.3167, -0.4926, -0.9622, -30.4573, -51.9683, 65.1616
-0.8614, -0.5621, -1.1812, -7.2256, -80.3829, -1.6067
-0.7636, -0.6257, -1.0444, 11.0671, -23.4317, -33.3140
-0.3447, -0.4746, -0.9670, 22.3476, 51.8122, -47.8872
0.1861, -0.4580, -0.8650, 23.2012, 33.7634, -61.6067
0.4357, -0.3642, -0.7204, 22.2256, 29.5561, -34.5945
0.6071, -0.3376, -0.6716, 9.2378, 18.1537, -5.3262
0.6052, -0.4337, -0.6384, -9.9085, 21.6902, 43.5152
0.3186, -0.4158, -0.7173, -25.2134, 11.5073, 68.0274
-0.0477, -0.4486, -0.8865, -29.4817, -28.0659, 65.7104
-0.7291, -0.4898, -1.1817, -8.4451, -96.0537, 15.5274
-1.0319, -0.5695, -1.0228, 14.8476, -74.8951, -48.4360
-0.5570, -0.5142, -0.9466, 22.8963, 42.2390, -55.9360
0.1219, -0.4470, -0.8588, 25.4573, 58.1537, -71.3018
0.5755, -0.3720, -0.7051, 21.6159, 55.0439, -37.2774
0.7476, -0.3256, -0.6744, 7.7134, 21.9341, -10.5701
0.5976, -0.3881, -0.6456, -9.9695, 17.4220, 43.4543
0.2656, -0.3909, -0.7316, -22.6524, 26.2634, 70.7104
0.0587, -0.4800, -0.7330, -38.7500, 7.3000, 75.7104
-0.6181, -0.4757, -1.1396, -17.8963, -74.9561, 32.8445
-1.0014, -0.6415, -1.0665, 7.3476, -100.0171, -46.7287
-0.7130, -0.5612, -1.0097, 19.4207, 21.3244, -60.5701
0.1083, -0.4970, -0.9225, 21.7988, 43.3366, -79.7165
0.4903, -0.3397, -0.7383, 32.2256, 59.4951, -48.0091
0.7711, -0.2830, -0.6476, 14.3598, 14.4951, -20.2652
0.6513, -0.3601, -0.5760, -3.6890, 1.9341, 26.1372
0.3386, -0.3785, -0.6685, -17.8354, 4.1902, 59.0031
0.1502, -0.4053, -0.6727, -32.8354, 18.2146, 83.5152
-0.1234, -0.4873, -0.8672, -34.9695, -34.9561, 76.5640
-0.7348, -0.5131, -1.1427, -17.5305, -90.9927, 11.0152
-0.9444, -0.7142, -1.0968, 6.6768, -66.4805, -36.7287
-0.4911, -0.5369, -1.0140, 21.3720, 54.0683, -46.6677
0.2162, -0.5101, -0.8428, 22.9573, 55.1049, -60.8140
0.5785, -0.3292, -0.7479, 27.6524, 53.2756, -23.0091
0.7128, -0.3244, -0.5610, 6.2500, 13.8244, -4.4726
0.5513, -0.3963, -0.6423, -13.5671, 0.1659, 44.4909
0.2296, -0.3673, -0.6884, -27.1646, 0.5317, 64.4299
0.0963, -0.4830, -0.7556, -39.2988, -17.9439, 75.1616
-0.5931, -0.4797, -1.1195, -20.6402, -69.8341, 41.3811
-1.0072, -0.5618, -1.2088, 7.7134, -95.4439, -31.9116
-0.6474, -0.5403, -0.9945, 21.6159, 13.7634, -41.1799
-0.1893, -0.5037, -0.9261, 26.1280, 58.6415, -70.8140
0.4958, -0.3976, -0.7322, 23.2622, 67.7268, -36.2409
0.6639, -0.3131, -0.6556, 11.7988, 27.9098, -23.0701
0.7222, -0.3872, -0.5769, -8.5671, 13.4585, 25.9543
0.4013, -0.4227, -0.6594, -24.8476, 9.0073, 61.3201
0.1006, -0.4122, -0.8099, -35.3354, 0.8976, 77.5396
-0.3473, -0.4672, -1.0260, -29.4207, -65.9317, 52.1128
-0.9512, -0.5009, -1.1639, -3.8720, -94.1024, -9.3506
-0.7733, -0.5472, -1.0314, 12.4085, -18.8585, -35.0823
-0.2960, -0.4845, -0.9334, 18.6890, 62.9098, -48.4969
0.2984, -0.4431, -0.8112, 18.0183, 51.3244, -49.8994
0.6203, -0.3840, -0.6627, 10.1524, 34.9220, -14.5945
0.6622, -0.3785, -0.6688, -3.4451, 9.3122, 15.1006
0.3450, -0.4583, -0.7131, -16.4939, 6.4463, 49.6128
0.1469, -0.4425, -0.7972, -28.1402, 3.2146, 66.0152
-0.3310, -0.4851, -0.9817, -20.7622, -51.7244, 44.0640
-0.9715, -0.4907, -1.1960, 3.0183, -98.3098, -19.2287
-0.8574, -0.5611, -1.0092, 17.7134, -18.9805, -50.2043
-0.3630, -0.4996, -0.9802, 25.6402, 52.7878, -72.3384
0.3664, -0.3972, -0.8122, 26.8598, 73.8854, -51.6677
0.5255, -0.3651, -0.7233, 23.7500, 35.4707, -45.2652
0.5658, -0.4002, -0.6741, 10.8232, -0.9927, -16.1189
0.4953, -0.3651, -0.6402, -5.2134, 12.7878, 25.5274
0.3171, -0.3927, -0.7051, -18.3841, 30.1049, 57.9665
0.0781, -0.4590, -0.6856, -34.1159, 24.8610, 71.5031
-0.2637, -0.4968, -1.0604, -28.7500, -62.0902, 52.0518
-1.0054, -0.5620, -1.1841, 1.5549, -117.6390, -28.0091
-0.8931, -0.5862, -1.0267, 18.9329, -14.2854, -49.5945
-0.2988, -0.5544, -0.8663, 24.2378, 68.9463, -73.9848
0.4693, -0.4130, -0.7947, 28.9329, 75.0439, -50.2652
0.6668, -0.3476, -0.6240, 20.8232, 22.2390, -40.0213
0.6589, -0.3540, -0.6029, 3.4451, -14.1024, -0.1433
0.4518, -0.3856, -0.6421, -13.3841, -14.5293, 39.1860
0.1479, -0.3772, -0.7375, -22.5305, -2.7000, 62.4177
-0.0089, -0.5128, -0.7441, -34.4207, -21.9073, 68.3323
-0.6170, -0.5410, -1.0931, -16.9207, -90.1390, 27.1128
-0.9963, -0.6589, -1.0685, 5.8841, -104.5293, -48.6189
-0.7042, -0.5723, -1.0234, 18.4451, 18.7024, -55.3262
0.1354, -0.4687, -0.8968, 23.8110, 49.9829, -73.5579
0.5959, -0.3696, -0.6718, 28.3232, 68.0317, -24.1677
0.7906, -0.3403, -0.5604, 5.9451, 11.2024, -2.8262
0.5193, -0.4376, -0.5728, -15.8841, -12.7610, 41.5640
0.1275, -0.3928, -0.6493, -30.2134, -18.0659, 60.0396
-0.0554, -0.4526, -0.8286, -39.1159, -12.0293, 74.3689
-0.5190, -0.4696, -1.0788, -24.4817, -64.2244, 36.8689
-0.9362, -0.5615, -1.2204, 2.8963, -92.0902, -25.9970
-0.6268, -0.5576, -0.9974, 18.2012, 2.1171, -37.5823
-0.1971, -0.4992, -0.9675, 22.8354, 53.0927, -60.6311
0.4286, -0.4544, -0.7142, 15.3963, 51.7512, -40.6921
0.6550, -0.3620, -0.6568, 5.5183, 34.6171, -8.5579
0.6454, -0.3743, -0.6450, -13.5671, 6.6902, 27.8445
0.2483, -0.4149, -0.7717, -22.8963, 4.1293, 57.6006
-0.0119, -0.4390, -0.7720, -31.3110, -5.1390, 68.8811
-0.4884, -0.4938, -1.0754, -16.4329, -75.6268, 41.5640
-1.1472, -0.5846, -1.1152, 12.2866, -101.2976, -40.9969
-0.7477, -0.5539, -0.9460, 19.0549, 24.5561, -42.5213
-0.2059, -0.5174, -0.8852, 24.1768, 56.6293, -79.2287
0.4182, -0.4079, -0.7541, 24.2988, 57.7268, -48.3140
0.5510, -0.3289, -0.6481, 16.6768, 26.5683, -37.6433
0.6965, -0.3588, -0.6296, -2.2256, 10.8366, 12.7226
0.4651, -0.4267, -0.6650, -18.8720, 16.1415, 55.2226
0.1899, -0.3804, -0.7386, -29.5427, 15.8976, 78.3323
-0.1986, -0.4499, -0.9897, -29.0549, -48.6146, 70.5884
-1.0299, -0.5314, -1.1826, -2.6524, -111.9073, -3.4970
-0.9887, -0.6246, -0.9908, 15.2134, -48.1878, -47.7043
-0.5713, -0.5794, -0.9199, 20.1524, 51.4463, -70.1433
0.3332, -0.3976, -0.8043, 20.5793, 72.6049, -60.6311
0.5885, -0.3591, -0.6384, 18.3232, 47.6049, -32.2774
0.7975, -0.3637, -0.6270, -0.6402, 10.8366, 8.5762
0.5159, -0.4418, -0.6572, -16.7988, 1.5073, 53.7591
0.1956, -0.3975, -0.7437, -28.0183, 7.3610, 79.3689
-0.1757, -0.4677, -0.8809, -30.8232, -23.9195, 75.9543
-0.8602, -0.4812, -1.2048, -9.9695, -103.0049, 9.5518
-1.1093, -0.6434, -1.0231, 14.3598, -76.9683, -49.7165
-0.5991, -0.5461, -0.8796, 18.3232, 48.0317, -56.8506
0.1434, -0.4110, -0.8785, 21.5549, 81.9951, -64.4116
0.5808, -0.4238, -0.6816, 16.7378, 68.6415, -30.8750
0.7653, -0.3883, -0.6034, 0.3354, 33.0317, 0.0396
0.6157, -0.4309, -0.6556, -16.4939, 12.4829, 43.8811
0.2143, -0.3995, -0.7539, -24.7256, 18.5805, 69.9787
-0.0798, -0.4817, -0.8495, -32.0427, -16.2976, 72.3567
-0.7073, -0.4288, -1.1793, -9.9695, -88.0659, 22.1128
-1.0809, -0.5711, -1.0579, 16.6159, -104.4073, -48.9848
-0.7306, -0.5665, -0.9357, 23.1402, 25.1049, -58.3750
0.0761, -0.5046, -0.7919, 18.8110, 69.0073, -73.2530
0.5892, -0.4195, -0.7413, 16.9817, 75.3488, -35.6311
0.8156, -0.3970, -0.6206, 3.5671, 31.3854, -11.7287
0.6689, -0.4570, -0.6472, -13.3232, 12.6049, 37.0518
0.2840, -0.4298, -0.6511, -29.4207, 11.1415, 63.6982
0.0210, -0.4042, -0.7999, -39.0549, -5.3220, 75.1006
-0.4935, -0.4308, -0.9691, -26.3110, -63.6756, 45.2835
-1.0556, -0.5006, -1.1508, 1.3110, -103.6146, -24.0457
-0.8188, -0.4867, -0.9679, 17.7134, -14.2854, -42.8262
-0.3724, -0.5356, -0.9194, 23.5061, 41.4463, -77.3994
0.3406, -0.4332, -0.8580, 25.2744, 53.7024, -56.6677
0.5876, -0.4314, -0.6869, 19.2378, 38.9463, -44.0457
0.7764, -0.4404, -0.6341, 2.1037, 11.8122, -2.5213
0.6138, -0.4951, -0.6494, -16.5549, 14.9220, 47.3567
0.2988, -0.4483, -0.6820, -31.3110, 12.9707, 70.5884
-0.0291, -0.4218, -0.8246, -39.1768, -24.0415, 74.0031
-0.7477, -0.4417, -1.0930, -20.7622, -92.7610, 23.6982
-1.1008, -0.4874, -1.0938, 8.3841, -105.8707, -40.3262
-0.7871, -0.5351, -0.9044, 19.2378, 17.1780, -50.2043
-0.1282, -0.4589, -0.9423, 23.8720, 53.3366, -74.6555
0.4271, -0.4285, -0.7551, 24.2988, 61.3854, -47.7652
0.7033, -0.3982, -0.6619, 12.4695, 34.3122, -28.0091
0.8014, -0.4384, -0.6097, -9.7866, 26.4463, 24.4909
0.4656, -0.4251, -0.7136, -26.0671, 20.2268, 63.0884
0.1460, -0.3764, -0.7397, -39.7256, -14.8951, 75.3445
-0.4711, -0.4320, -1.0768, -22.5305, -90.8707, 51.6250
-1.2512, -0.4821, -1.1620, 4.2988, -134.5902, -36.7896
-0.9746, -0.5394, -0.9883, 19.0549, 3.3366, -47.6433
-0.2753, -0.4995, -0.9175, 24.5427, 55.2878, -81.1799
0.5682, -0.4110, -0.7555, 23.9329, 78.5195, -43.8018
0.8234, -0.3850, -0.5926, 12.0427, 54.3122, -13.5579
0.8240, -0.4570, -0.6035, -14.4817, 16.2024, 36.8689
0.3424, -0.4395, -0.6982, -30.8841, -3.2488, 63.6982
0.0394, -0.3699, -0.8303, -39.4207, -24.2244, 75.4055
-0.6565, -0.4506, -1.0616, -21.3720, -71.6634, 45.5274
-1.1376, -0.4801, -1.1783, 6.8598, -106.7244, -30.8750
-0.7841, -0.5532, -0.9216, 19.7256, 5.4707, -40.9360
-0.2991, -0.5051, -0.9277, 23.9939, 51.5073, -69.2287
0.4763, -0.4147, -0.8061, 22.7134, 64.3732, -46.3628
0.7313, -0.4083, -0.6180, 10.3354, 51.0805, -17.2165
0.8225, -0.4437, -0.6164, -13.9939, 23.8244, 29.5518
0.3747, -0.4089, -0.7269, -27.1646, 2.1171, 61.5640
0.0549, -0.3992, -0.7948, -37.9573, 4.6171, 80.4665
-0.4954, -0.3862, -1.0563, -25.2744, -59.0415, 55.7104
-1.1862, -0.4321, -1.2584, 9.2988, -117.0902, -29.1677
-0.8715, -0.5497, -0.9430, 23.8720, -10.2000, -46.2409
-0.3853, -0.4874, -0.9468, 28.2012, 57.1780, -70.8140
0.4424, -0.4270, -0.7286, 21.6159, 78.4585, -46.9116
0.6675, -0.4216, -0.6353, 10.2744, 43.1537, -24.5335
0.8101, -0.4807, -0.6194, -10.0305, 18.8244, 17.7835
0.4671, -0.4702, -0.7137, -23.7500, 13.3976, 59.6128
0.1246, -0.4058, -0.7256, -34.4207, 15.1659, 78.6982
-0.3399, -0.3951, -1.0764, -25.7622, -65.3220, 58.4543
-1.1949, -0.4237, -1.2096, 7.8354, -126.7244, -28.0091
-0.9072, -0.5103, -0.9713, 23.3232, -24.8951, -46.7287
-0.3912, -0.5155, -0.8823, 26.1890, 53.9463, -70.3872
0.4706, -0.4495, -0.7164, 18.8110, 83.7024, -44.2287
0.7066, -0.4348, -0.6504, 7.2866, 45.8976, -19.2896
0.7994, -0.4774, -0.6472, -13.5061, 10.5927, 23.6982
0.3610, -0.4384, -0.7462, -24.4207, 2.7878, 59.6738
0.0484, -0.3960, -0.7865, -35.1524, 8.8854, 75.4055
-0.4091, -0.3910, -1.0745, -21.3720, -58.7976, 53.2104
-1.1326, -0.4277, -1.1904, 9.7866, -115.3829, -27.3384
-0.8415, -0.5347, -0.9324, 21.4329, -16.6634, -43.7409
-0.3657, -0.5129, -0.8934, 24.5427, 44.0073, -71.9726
0.4228, -0.4538, -0.7440, 19.4817, 71.5073, -43.3750
0.6305, -0.4518, -0.6660, 10.9451, 36.0195, -28.5579
0.7272, -0.4669, -0.6488, -5.8841, 9.8610, 16.0152
0.4333, -0.4508, -0.7272, -19.6646, 9.1293, 53.1494
0.1253, -0.3896, -0.7529, -31.6768, 20.7146, 74.8567
-0.2138, -0.4082, -0.9282, -29.9085, -36.1146, 62.3567
-0.9139, -0.3711, -1.2014, -2.4085, -105.2610, -1.9726
-1.0202, -0.5658, -0.9683, 18.0183, -63.6146, -48.6189
-0.5656, -0.5289, -0.8837, 23.8110, 46.8732, -64.5335
0.2580, -0.4741, -0.8325, 23.6280, 63.5195, -61.7896
0.5820, -0.4699, -0.6724, 16.6768, 48.7024, -38.8018
0.7591, -0.4464, -0.6525, -0.3354, 17.9707, -0.9360
0.5351, -0.4641, -0.6786, -18.3232, 17.6049, 44.6128
0.2079, -0.4093, -0.7285, -29.5427, 30.7146, 70.4055
0.0730, -0.4872, -0.7971, -41.4939, 12.1171, 79.2470
-0.5088, -0.3869, -1.0569, -26.6159, -60.8098, 42.2957
-1.1228, -0.4760, -1.1659, 8.3232, -128.0659, -38.7409
-0.9194, -0.4910, -1.0093, 22.4085, -13.7366, -56.8506
-0.2351, -0.5018, -0.8137, 21.7988, 62.1780, -79.7165
0.6149, -0.4093, -0.7593, 20.4573, 79.1902, -39.2896
0.7814, -0.4367, -0.6326, 10.0305, 23.4585, -18.4970
0.7198, -0.4876, -0.6465, -11.0671, -3.2488, 29.3079
0.2865, -0.4515, -0.6924, -27.0427, 2.1171, 58.1494
0.0347, -0.3961, -0.7491, -39.1768, 0.5317, 71.5031
-0.3925, -0.3821, -1.0267, -27.7744, -64.7732, 47.4177
-1.0944, -0.4003, -1.1856, 2.5305, -117.8220, -25.2652
-0.9051, -0.4922, -1.0101, 16.8598, -30.9927, -46.6677
-0.4276, -0.4932, -0.9188, 24.8476, 55.6537, -67.7652
0.4389, -0.4332, -0.7913, 23.5671, 73.0927, -48.3750
0.6796, -0.4871, -0.6712, 16.4329, 49.6171, -21.0579
0.7901, -0.4747, -0.5912, -3.5061, 18.2756, 14.6128
0.4717, -0.4629, -0.6627, -20.3354, 7.4829, 53.5152
0.1360, -0.3767, -0.7135, -37.2256, 7.3610, 74.3689
-0.2526, -0.3734, -0.9279, -33.6890, -52.2122, 58.4543
-1.0217, -0.3504, -1.2625, -2.5915, -124.5293, -8.5579
-1.0720, -0.5207, -1.0131, 19.7866, -62.7610, -50.5701
-0.5194, -0.5139, -0.9226, 25.2134, 63.4585, -54.1677
0.3922, -0.4213, -0.7789, 22.2256, 87.9707, -51.4238
0.6758, -0.4798, -0.6833, 14.4207, 49.6780, -21.7896
0.7460, -0.4527, -0.6367, -4.4207, 3.3976, 6.6860
0.4375, -0.4491, -0.7126, -19.6646, -8.8585, 43.0884
0.0987, -0.4099, -0.7397, -32.4085, 11.2634, 67.3567
-0.1655, -0.4177, -0.9236, -31.7378, -16.1146, 62.6616
-0.7650, -0.3828, -1.1932, -10.0915, -79.1024, 11.4421
-1.0103, -0.4874, -1.0449, 17.1037, -81.7854, -52.7652
-0.6486, -0.4995, -0.9867, 26.0061, 26.3854, -60.2652
0.1421, -0.4547, -0.7845, 23.8110, 69.0073, -65.9969
0.5682, -0.4422, -0.6982, 18.0793, 63.2146, -32.2165
0.7151, -0.4612, -0.6367, 2.4085, 27.3000, -6.7287
0.6149, -0.4945, -0.6769, -16.6768, 9.6780, 33.6982
0.2526, -0.4077, -0.7355, -28.3232, 16.3854, 60.5274
-0.0141, -0.4060, -0.7985, -37.3476, 2.1780, 67.5396
-0.4168, -0.4112, -1.0352, -27.7744, -53.1268, 44.8567
-0.9915, -0.4116, -1.1400, 2.1037, -103.1268, -24.4116
-0.8582, -0.4916, -0.9969, 17.1646, -35.6878, -48.1921
-0.4519, -0.5037, -0.9144, 26.4939, 34.3122, -76.9116
0.2903, -0.4058, -0.8514, 26.3720, 52.6049, -59.8384
0.5196, -0.4289, -0.7184, 20.9451, 41.3854, -42.3384
0.7494, -0.4399, -0.6430, 3.7500, 20.2268, -4.1677
0.6495, -0.4653, -0.6419, -15.9451, 18.7634, 45.2226
0.2345, -0.4125, -0.6952, -29.3598, 22.4220, 70.7713
0.0539, -0.4303, -0.7949, -42.0427, -7.7000, 78.8811
-0.4765, -0.3986, -1.0497, -28.3841, -66.2976, 46.9909
-1.1704, -0.3846, -1.1866, 3.5671, -119.8951, -34.3506
-0.8910, -0.5029, -1.0024, 21.0061, -12.8829, -49.2287
-0.3216, -0.4826, -0.8772, 26.9817, 55.7146, -77.8262
0.4451, -0.4230, -0.7823, 25.2134, 80.2268, -45.7530
0.7079, -0.4400, -0.6859, 15.3963, 47.3000, -24.5335
0.8295, -0.4514, -0.6381, -3.6280, 12.0561, 15.5884
0.4363, -0.4494, -0.7057, -19.9085, 5.4707, 54.7957
0.1161, -0.4330, -0.7360, -34.9695, 20.7756, 75.2226
-0.1859, -0.4197, -0.9496, -32.5305, -36.2976, 64.1860
-0.9415, -0.3401, -1.2203, -4.8476, -113.5537, -4.8384
-1.0663, -0.4735, -1.0057, 16.7988, -72.9439, -53.5579
-0.6532, -0.4828, -0.9407, 25.2134, 46.9951, -64.4726
0.2961, -0.4005, -0.8073, 24.6037, 76.8122, -59.3506
0.6044, -0.4138, -0.7130, 21.8598, 59.0683, -29.6555
0.7822, -0.4337, -0.6373, 1.4329, 14.5561, 2.0518
0.5373, -0.4816, -0.6943, -15.2134, 2.6659, 42.2957
0.1872, -0.4297, -0.7437, -26.6768, 12.5439, 64.6128
-0.0003, -0.4214, -0.8134, -36.0061, -16.7244, 71.4421
-0.6029, -0.4163, -1.0694, -19.2378, -75.5659, 33.4543
-1.0397, -0.4590, -1.0999, 7.6524, -108.6756, -38.4969
-0.7584, -0.4855, -0.9783, 21.5549, -4.0415, -44.8384
-0.2246, -0.4835, -0.8914, 23.5671, 46.3854, -71.6677
0.4819, -0.4444, -0.7303, 21.4939, 69.2512, -35.6311
0.6400, -0.4536, -0.6831, 12.5305, 36.6293, -17.4604
0.6742, -0.4552, -0.6721, -6.3110, 13.7024, 24.3079
0.3478, -0.4579, -0.7208, -19.7256, 10.2878, 54.6738
0.0987, -0.4110, -0.7780, -30.8841, 20.0439, 72.5396
-0.2992, -0.4113, -0.9827, -26.1890, -37.2122, 54.1860
-0.9704, -0.3351, -1.2357, 2.8963, -103.8585, -13.8018
-0.9463, -0.4952, -0.9606, 19.7866, -47.7610, -47.8262
-0.4414, -0.4862, -0.9497, 24.5427, 46.9341, -61.5457
0.4060, -0.4527, -0.6944, 18.1402, 84.6780, -41.1189
0.7491, -0.4600, -0.6437, 8.8720, 52.6659, -10.5091
0.7740, -0.4601, -0.6581, -11.0671, 14.8000, 26.1372
0.3257, -0.4500, -0.7422, -24.6037, 0.4098, 55.0396
-0.0068, -0.4115, -0.8773, -33.5671, 6.9341, 70.4665
-0.4379, -0.3960, -0.9949, -23.9329, -48.2488, 45.4055
-0.9884, -0.3856, -1.1982, 7.9573, -92.7000, -18.3750
-0.7859, -0.4927, -0.9055, 18.8110, -15.2610, -41.9726
-0.2828, -0.3997, -0.9374, 22.1646, 57.1171, -53.4360
0.4177, -0.4519, -0.7140, 14.8476, 66.3854, -38.6799
0.6370, -0.4420, -0.7140, 7.1037, 39.3122, -12.8262
0.6553, -0.4960, -0.6933, -8.9329, 10.7146, 22.8445
0.2917, -0.4913, -0.7812, -18.3232, 15.5927, 50.1006
0.0185, -0.4516, -0.7834, -28.9939, 15.8366, 59.6128
-0.2641, -0.4038, -1.0664, -19.6037, -58.2488, 39.9787
-1.0393, -0.3909, -1.1335, 14.4817, -110.6268, -35.2043
-0.8600, -0.4591, -0.9544, 24.7866, -16.7244, -50.0213
-0.2404, -0.4746, -0.7862, 21.5549, 57.2390, -62.0945
0.5091, -0.4390, -0.6801, 15.1524, 79.1293, -33.4969
0.7795, -0.4665, -0.6382, 3.2622, 29.0073, -11.8506
0.7071, -0.5150, -0.6608, -13.0793, 1.8122, 33.5152
0.3530, -0.4672, -0.7482, -26.0061, 3.8244, 62.9055
-0.0031, -0.4312, -0.8420, -32.6524, -8.1878, 70.2835
-0.6115, -0.3169, -1.1723, -12.6524, -81.7854, 33.3323
-1.1803, -0.4480, -1.0698, 19.7256, -113.0049, -44.5335
-0.8096, -0.5130, -0.8745, 26.0671, 16.3854, -48.6189
0.0083, -0.4909, -0.7245, 17.7134, 77.6659, -58.5579
0.6550, -0.4896, -0.6727, 6.2500, 73.8854, -26.8506
0.8287, -0.4838, -0.6830, -9.8476, 15.6537, -6.3018
0.5900, -0.5318, -0.7758, -24.4817, -1.6634, 31.7470
0.2206, -0.4154, -0.8633, -29.6037, 10.8366, 56.0152
-0.1641, -0.3559, -1.0100, -23.3841, -24.2854, 53.8201
-0.8669, -0.2980, -1.1934, 10.0915, -101.8463, -0.1433
-1.0356, -0.4758, -0.9193, 29.4817, -57.7610, -51.5457
-0.4894, -0.4825, -0.8336, 31.0671, 51.5073, -58.0091
0.3556, -0.4664, -0.6196, 22.3476, 85.7756, -42.7652
0.6609, -0.4689, -0.6082, 8.9939, 48.3366, -26.4848
0.7663, -0.5109, -0.5922, -11.1890, 9.9829, 10.5274
0.4809, -0.4602, -0.7409, -24.7256, 4.4341, 47.2957
0.1760, -0.4333, -0.7435, -35.0915, 23.4585, 71.3201
-0.1246, -0.3252, -1.0136, -25.9451, -15.2000, 70.1006
-0.6744, -0.2861, -1.1849, -5.0305, -88.0659, 16.1982
-1.0255, -0.5308, -1.0272, 22.9573, -103.3098, -45.9969
-0.6972, -0.5632, -0.8734, 27.7134, 19.8610, -53.1311
0.1099, -0.4852, -0.8536, 21.5549, 64.5561, -65.5701
0.4747, -0.5187, -0.7218, 13.4451, 56.4463, -48.3750
0.6631, -0.4686, -0.7364, 1.3720, 14.7390, -25.8750
0.6871, -0.4835, -0.7064, -14.1768, 15.7756, 21.1372
0.4516, -0.4423, -0.7130, -27.0427, 25.5317, 59.6128
0.1996, -0.4221, -0.7440, -38.2012, 23.3366, 80.6494
-0.2369, -0.3512, -0.9919, -29.5427, -42.9439, 60.1006
-0.8688, -0.3560, -1.1324, -6.1280, -99.6512, 0.0396
-0.9718, -0.4850, -0.9774, 16.4939, -43.9805, -36.2409
-0.3833, -0.4729, -0.7977, 20.3354, 63.0927, -38.0701
0.2159, -0.4333, -0.7726, 19.1159, 65.9585, -45.0213
0.5730, -0.4841, -0.6271, 5.7622, 34.2512, -17.2165
0.5848, -0.4656, -0.7200, -5.4573, -3.3707, 2.8445
0.3987, -0.4910, -0.7814, -14.7256, -0.6268, 36.4421
0.1874, -0.4317, -0.8597, -19.7866, 14.4341, 61.1982
-0.1549, -0.4050, -0.9885, -16.3110, -1.1146, 53.0884
-0.6580, -0.3102, -1.2142, 8.0183, -70.8707, 5.7713
-0.8747, -0.4754, -1.0312, 28.9939, -61.8463, -41.5457
-0.4567, -0.5068, -0.8498, 31.0061, 26.7512, -52.9482
0.2467, -0.4530, -0.6768, 20.5793, 79.4341, -38.8628
0.6347, -0.5122, -0.6541, 7.0427, 59.1293, -19.5335
0.7456, -0.5297, -0.6176, -11.1280, 24.3732, 17.1128
0.5159, -0.5266, -0.6912, -26.5549, 5.3488, 46.8689
0.1795, -0.4365, -0.8082, -35.7622, 6.2634, 66.8079
-0.2708, -0.3386, -1.0000, -25.8232, -36.0537, 52.3567
-0.7857, -0.3457, -1.1792, 2.4085, -92.5171, -3.8628
-0.9212, -0.4635, -0.9843, 25.3354, -63.9195, -46.3018
-0.4912, -0.4570, -0.8991, 28.7500, 26.3854, -59.0457
0.2292, -0.4647, -0.6924, 19.2988, 62.2390, -54.1677
0.5197, -0.4967, -0.6978, 13.2622, 37.4829, -38.4360
0.5978, -0.4768, -0.7148, 1.6768, 1.6293, -13.1311
0.5622, -0.5117, -0.7327, -11.4939, 7.7268, 28.8201
0.3534, -0.4594, -0.7784, -19.4207, 22.8488, 57.8445
0.0401, -0.4196, -0.8462, -27.1646, 5.5927, 64.1250
-0.4860, -0.3667, -1.1037, -10.8841, -71.2366, 27.6616
-0.9781, -0.4746, -1.0734, 16.3110, -117.7000, -35.3872
-0.8555, -0.5413, -0.8743, 23.8110, -16.3585, -55.8140
-0.1402, -0.4744, -0.8734, 26.4939, 46.6902, -70.9360
0.4353, -0.4878, -0.7217, 22.2866, 69.0683, -45.3872
0.7405, -0.4658, -0.6595, 9.2378, 27.4829, -25.8750
0.7521, -0.5097, -0.6198, -8.3841, 6.5683, 22.4787
0.4253, -0.4752, -0.7281, -19.7256, 5.5927, 54.6128
0.0988, -0.4206, -0.7578, -30.9451, 23.4585, 73.8201
-0.2052, -0.4063, -0.9517, -28.4451, -26.4805, 61.1372
-0.7477, -0.4052, -1.0790, -9.4207, -91.4195, 5.4055
-0.9345, -0.5120, -0.9968, 13.7500, -79.3463, -41.6067
-0.5441, -0.5159, -0.8625, 18.2622, 23.6415, -55.3262
0.1378, -0.4633, -0.8298, 19.7256, 57.5439, -58.9848
0.5570, -0.5033, -0.7111, 12.6524, 52.2390, -32.8262
0.6942, -0.5013, -0.6692, -1.4939, 15.4098, -10.3872
0.5954, -0.5314, -0.7076, -16.7378, 1.2024, 28.7591
0.2776, -0.4854, -0.7682, -26.3720, 8.2756, 53.0274
0.1301, -0.5275, -0.7360, -41.7378, 25.8976, 70.8323
-0.1485, -0.3535, -0.9405, -34.5427, -37.3951, 60.7713
-0.8123, -0.2928, -1.2398, -9.5427, -108.6756, -5.2652
-1.0791, -0.4501, -1.0127, 17.7744, -87.5171, -58.1311
-0.6905, -0.4412, -0.9884, 29.9695, 46.9341, -66.2409
0.2519, -0.3917, -0.7701, 28.5671, 100.4707, -55.2652
0.7232, -0.5031, -0.6454, 20.8841, 79.3122, -28.0701
0.7995, -0.5136, -0.6066, 3.2622, 20.7146, 2.1128
0.5562, -0.5335, -0.6197, -19.3598, 0.7146, 38.4543
0.1870, -0.3895, -0.6895, -31.6159, -2.3951, 60.6494
-0.0834, -0.3513, -0.8890, -35.8232, -40.8707, 54.0640
-0.6225, -0.3036, -1.0631, -13.3841, -98.3707, 19.1250
-1.0176, -0.4204, -1.0843, 13.9939, -91.7244, -34.5335
-0.6130, -0.4913, -0.9269, 23.5061, 12.4220, -38.3750
-0.0481, -0.5017, -0.8475, 25.9451, 54.6171, -47.8262
0.3591, -0.4992, -0.7689, 22.5915, 49.3732, -39.5945
0.5769, -0.5322, -0.7096, 11.7378, 26.1415, -18.7409
0.6043, -0.5597, -0.7219, -3.8720, 19.6780, 15.7104
0.4283, -0.5436, -0.7213, -17.1037, 29.9220, 47.2957
0.1769, -0.5054, -0.6874, -31.4329, 20.8976, 65.1006
-0.1729, -0.4324, -0.9670, -30.3354, -80.5659, 42.9055
-1.0062, -0.4220, -1.1633, -4.0549, -143.3707, -27.6433
-1.1517, -0.4921, -0.9577, 7.3476, -44.6512, -66.1189
-0.5019, -0.4186, -0.9994, 17.5305, 75.9585, -72.0945
0.3467, -0.3657, -0.8485, 23.5061, 97.1171, -62.2774
0.7573, -0.3960, -0.6794, 22.3476, 70.5317, -30.3872
0.9048, -0.4286, -0.5723, 4.9085, 28.8244, 12.0518
0.5423, -0.4904, -0.6343, -15.8841, 5.7756, 47.2348
0.1661, -0.4133, -0.6804, -33.8110, -4.8951, 69.7957
-0.0877, -0.4317, -0.8978, -37.3476, -55.3220, 66.6250
-0.7188, -0.3862, -1.1102, -18.4451, -96.7854, 16.7470
-1.0160, -0.4819, -1.0894, 6.4329, -90.4439, -35.8750
-0.6400, -0.4851, -0.9166, 16.5549, 10.1049, -41.7287
-0.0906, -0.4588, -0.9432, 25.0305, 41.1415, -65.2043
0.3660, -0.4548, -0.7869, 25.5183, 43.7024, -46.4848
0.5155, -0.4774, -0.7330, 17.2866, 24.4951, -29.9604
0.6374, -0.5276, -0.6571, 0.8841, 29.1293, 9.3079
0.5013, -0.4995, -0.6940, -15.1524, 31.3244, 49.1250
0.2429, -0.4832, -0.7038, -30.5183, 34.8610, 68.6982
0.0384, -0.4154, -0.8332, -36.7378, -27.4561, 67.3567
-0.6449, -0.3652, -1.1679, -20.2744, -101.7244, 19.4909
-1.1346, -0.4760, -1.0760, 11.6768, -106.1756, -45.4482
-0.7716, -0.4830, -0.8781, 20.2134, 31.7512, -47.8262
-0.0416, -0.4348, -0.8685, 24.9085, 82.0561, -59.2287
0.5912, -0.4647, -0.6442, 19.7256, 77.6659, -29.6555
0.8125, -0.5088, -0.6039, 2.5305, 36.6293, -2.5823
0.6948, -0.5434, -0.6490, -17.3476, 13.2756, 37.3567
0.3197, -0.4737, -0.7149, -30.2744, 13.8854, 64.6128
0.0405, -0.4260, -0.8051, -38.5061, -21.4805, 69.7348
-0.5941, -0.3699, -1.0610, -22.1646, -85.3220, 31.8079
-1.0820, -0.4238, -1.0995, 5.3963, -119.8951, -39.9604
-0.9071, -0.5104, -0.9526, 16.6768, -8.3707, -53.0091
-0.2188, -0.4084, -0.9891, 24.7866, 58.7024, -72.0335
0.4422, -0.3989, -0.8091, 26.3110, 72.3000, -48.2530
0.6173, -0.4345, -0.6854, 19.4817, 23.5805, -39.5335
0.6832, -0.4702, -0.6652, 5.3963, 3.7024, 1.2591
0.5449, -0.4860, -0.6653, -11.3720, 14.0683, 44.6128
0.2258, -0.4519, -0.6905, -28.0793, 23.0927, 70.4665
0.0457, -0.4299, -0.8292, -38.0183, -13.8585, 73.7591
-0.5499, -0.4276, -1.0601, -23.8110, -71.7244, 37.4177
-1.0784, -0.3951, -1.1853, 4.1159, -117.0293, -37.7652
-0.8579, -0.5014, -0.9517, 18.4451, -7.6390, -47.2774
-0.2429, -0.4431, -0.9404, 26.1280, 56.9951, -68.2530
0.4603, -0.4387, -0.7254, 25.3354, 82.7878, -40.6311
0.7689, -0.4595, -0.6199, 15.2134, 46.8732, -14.7165
0.7411, -0.4922, -0.6168, -6.0671, 11.8122, 25.2226
0.3463, -0.4752, -0.7021, -21.2500, 1.8122, 52.2957
0.0954, -0.4411, -0.7325, -35.6402, 2.2390, 67.7226
-0.2250, -0.4343, -0.9499, -31.3720, -52.5171, 58.0274
-0.8473, -0.4747, -1.1082, -15.0915, -108.7976, -5.8140
-0.9448, -0.4505, -1.0339, 6.0671, -63.9195, -46.3018
-0.5233, -0.4250, -0.9427, 12.3476, 40.5317, -51.9116
0.0313, -0.3904, -0.9957, 22.7744, 59.1293, -65.6311
0.5845, -0.4447, -0.6831, 18.6280, 64.0073, -25.8750
0.7724, -0.4419, -0.6351, 5.9451, 34.1902, 2.2957
0.5726, -0.4958, -0.6832, -12.5915, 9.0073, 37.1128
0.1559, -0.4516, -0.7541, -23.9939, 4.9220, 58.6982
-0.0761, -0.4563, -0.8369, -33.2622, -24.7122, 58.5152
-0.5940, -0.3976, -1.0997, -16.9817, -65.7488, 24.7957
-0.9140, -0.4101, -1.1154, 5.4573, -80.3220, -33.1921
-0.6785, -0.4303, -0.9590, 20.5183, -3.4317, -43.1311
-0.2454, -0.4871, -0.9290, 28.2012, 39.4341, -68.2530
0.3569, -0.4323, -0.7697, 28.9939, 57.7878, -47.2774
0.6322, -0.4722, -0.6372, 19.9695, 45.5927, -27.3994
0.8190, -0.4950, -0.6001, -0.2744, 30.2878, 21.3811
0.4930, -0.4836, -0.6878, -17.8963, 15.4098, 57.9665
0.1675, -0.4573, -0.6753, -35.4573, 14.3122, 75.8323
-0.0871, -0.3728, -0.8727, -35.3354, -43.9195, 72.9665
-0.8491, -0.3678, -1.1128, -14.3598, -102.5171, 11.5030
-1.0493, -0.4539, -1.0321, 12.3476, -94.8341, -45.3262
-0.6778, -0.4837, -0.9183, 19.7866, 25.5927, -54.4116
0.0147, -0.4534, -0.8758, 23.0183, 58.2146, -65.8750
0.5240, -0.4641, -0.7534, 19.9085, 58.4585, -37.0945
0.6986, -0.4676, -0.7238, 9.9085, 19.9220, -12.2774
0.6459, -0.5108, -0.6721, -6.9817, 16.0195, 33.7591
0.3462, -0.4882, -0.7072, -20.0915, 11.4463, 63.0884
0.1058, -0.4733, -0.7460, -33.0183, 22.6659, 80.4055
-0.2550, -0.3554, -0.9435, -25.7622, -33.3707, 65.6494
-0.8909, -0.3059, -1.2498, -3.1402, -108.2488, -5.3872
-1.0390, -0.5047, -0.9632, 20.3354, -73.9195, -48.8018
-0.5206, -0.4784, -0.8450, 22.4695, 49.6171, -55.3872
0.2739, -0.4483, -0.7413, 20.6402, 89.0073, -46.1799
0.6918, -0.4932, -0.6510, 11.7988, 56.3854, -24.7774
0.7731, -0.5376, -0.6325, -3.5671, 18.3976, 13.0274
0.4979, -0.5094, -0.6915, -19.6646, 6.2634, 46.9909
0.1362, -0.4324, -0.7279, -31.2500, 13.8854, 70.8933
-0.1724, -0.3819, -0.9514, -30.3354, -43.0659, 61.2591
-0.8458, -0.3161, -1.2488, -3.2012, -102.0293, 6.5030
-1.1012, -0.4457, -1.0534, 23.0793, -81.9073, -51.2409
-0.6192, -0.4794, -0.9252, 28.7500, 50.2878, -52.2165
0.1476, -0.4816, -0.7584, 23.9939, 81.7512, -60.3872
0.5528, -0.5168, -0.6747, 16.3720, 60.7146, -36.1799
0.7100, -0.5332, -0.6584, 1.7378, 11.6293, -10.6921
0.5425, -0.5418, -0.7121, -14.1768, 7.7878, 33.0274
0.2399, -0.4541, -0.7986, -21.1280, 23.0927, 57.9665
0.0093, -0.4528, -0.7894, -30.3963, 6.3244, 65.7104
-0.4688, -0.3852, -1.0928, -13.0793, -56.3585, 39.1250
-0.9979, -0.4038, -1.1271, 16.0061, -106.4805, -35.1433
-0.8698, -0.5047, -0.8882, 26.9817, -15.3829, -46.9726
-0.3552, -0.4910, -0.8912, 31.0671, 45.7756, -73.1921
0.3929, -0.4732, -0.7324, 27.1037, 64.2512, -52.0335
0.6655, -0.4867, -0.6071, 14.2988, 39.8000, -34.7774
0.7946, -0.5066, -0.6116, -4.7256, 13.1537, 9.8567
0.5347, -0.5248, -0.6895, -21.1280, 8.3976, 49.6738
0.1943, -0.4370, -0.7252, -32.6524, 19.9220, 72.0518
0.0040, -0.4232, -0.8502, -35.7622, -18.9195, 75.7713
-0.6024, -0.3916, -1.0873, -20.8232, -71.2366, 34.0031
-1.0318, -0.4188, -1.1721, 6.7988, -101.4805, -26.3628
-0.7980, -0.4877, -0.9058, 20.3354, -8.9805, -43.1311
-0.2749, -0.4759, -0.9043, 26.0671, 46.9341, -65.1433
0.3981, -0.5043, -0.6641, 20.3963, 59.2512, -43.1921
0.6287, -0.5111, -0.6594, 8.3841, 30.8366, -24.6555
0.7093, -0.5321, -0.6688, -8.4451, 6.9951, 10.8933
0.4421, -0.5304, -0.7359, -21.4329, 6.0195, 46.2591
0.1401, -0.4624, -0.7287, -32.7134, 15.8976, 67.7835
-0.1469, -0.4057, -0.9337, -28.9939, -48.0659, 55.4055
-0.8569, -0.3659, -1.1916, -5.2134, -106.8463, -2.0335
-1.0299, -0.4429, -0.9780, 16.1280, -72.8829, -50.2043
-0.5367, -0.4662, -0.8879, 19.7256, 45.8366, -56.9116
0.1812, -0.4445, -0.8456, 19.9085, 67.1171, -58.3750
0.6050, -0.4752, -0.7017, 14.1159, 50.8976, -29.8994
0.7176, -0.5215, -0.6425, -1.0671, 17.3610, 3.6982
0.5069, -0.5507, -0.6780, -20.0915, 13.3976, 41.1372
0.1655, -0.4858, -0.7260, -32.5915, 24.4341, 64.5518
-0.0566, -0.4457, -0.8699, -38.5061, -21.6024, 62.0518
-0.6126, -0.3884, -1.0947, -18.6280, -78.4927, 22.2957
-1.0502, -0.4324, -1.1131, 13.3232, -93.0049, -42.0335
-0.7660, -0.4542, -0.9544, 24.6646, 14.9829, -48.3140
-0.1397, -0.4683, -0.8301, 26.0671, 56.6293, -66.4848
0.4460, -0.4340, -0.7702, 21.7988, 54.1902, -41.8506
0.6266, -0.4589, -0.6913, 10.0915, 18.8244, -23.9848
0.6207, -0.4763, -0.7152, -6.7378, 10.2268, 17.1128
0.3695, -0.4501, -0.7550, -18.7500, 19.8610, 49.0031
0.1843, -0.3968, -0.7833, -28.3841, 27.9098, 71.5031
-0.0843, -0.4032, -0.8627, -28.6280, -21.1146, 65.3445
-0.6505, -0.3131, -1.0774, -12.1037, -75.9317, 19.4909
-0.9790, -0.4694, -1.0520, 12.5915, -97.7610, -36.4238
-0.6892, -0.5457, -0.9105, 22.2256, 8.0317, -45.7530
-0.0581, -0.5084, -0.8631, 22.2866, 51.8732, -63.0701
0.4716, -0.5090, -0.7068, 14.4817, 74.3122, -33.3750
0.7473, -0.5219, -0.6683, 2.5305, 37.9098, -9.8384
0.6976, -0.5432, -0.6965, -13.2012, 4.8610, 29.4909
0.2871, -0.5244, -0.7653, -21.0671, 0.8366, 56.3811
-0.0316, -0.4157, -0.7676, -26.4329, -7.5171, 62.4787
-0.4474, -0.4287, -1.1018, -15.0305, -78.8585, 32.5396
-1.0651, -0.4268, -1.0574, 14.8476, -117.4561, -45.7530
-0.8051, -0.5068, -0.8669, 21.0671, 3.3976, -48.9848
-0.1857, -0.4378, -0.8752, 24.5427, 47.8488, -64.4116
0.4705, -0.4396, -0.7011, 19.8476, 59.8000, -37.3994
0.7032, -0.4437, -0.6698, 6.3720, 16.5073, -17.8262
0.6358, -0.4957, -0.6858, -8.6890, -2.1512, 28.0884
0.2806, -0.4818, -0.7424, -19.4817, 0.0439, 55.8933
0.0271, -0.4208, -0.8788, -25.3963, 5.7756, 72.7226
-0.4364, -0.4238, -0.9879, -14.2378, -53.1878, 45.2835
-1.0181, -0.4591, -1.1445, 9.9085, -95.4439, -20.1433
-0.8571, -0.5366, -0.8188, 21.1890, -16.6634, -42.5823
-0.3582, -0.4798, -0.8827, 20.3963, 47.3610, -55.9360
0.2998, -0.4828, -0.8085, 23.8720, 61.9341, -40.8750
0.3788, -0.5168, -0.6578, 15.3354, 37.5439, -34.3506
0.4900, -0.5293, -0.6982, -0.2744, 29.3732, -5.1433
0.4656, -0.5073, -0.7459, -11.1280, 34.4341, 32.1128
0.2077, -0.4605, -0.7995, -15.4573, 34.3122, 53.3933
-0.0401, -0.5219, -0.6807, -28.1402, 7.1171, 51.0762
-0.4779, -0.4664, -1.0929, -11.9207, -56.7854, 25.7104
-0.8870, -0.4989, -1.0718, 13.6890, -101.4195, -47.5213
-0.7868, -0.5511, -0.9265, 25.1524, -8.4317, -57.3994
-0.1437, -0.5611, -0.8214, 24.8476, 37.5439, -80.8750
0.5152, -0.4791, -0.7179, 22.1037, 65.9585, -42.2165
0.8357, -0.4379, -0.5792, 6.3110, 32.4220, -20.2652
0.7684, -0.4962, -0.5960, -16.0671, -3.6756, 30.3445
0.2523, -0.4274, -0.7719, -25.8841, -30.5049, 46.9909
-0.0021, -0.4353, -0.6846, -36.0061, -12.3951, 66.0762
-0.2572, -0.4225, -0.9315, -28.5671, -42.1512, 61.6860
-0.8242, -0.4758, -1.0759, -10.9451, -71.4805, 0.5884
-0.7990, -0.5465, -0.9653, 10.7622, -47.5171, -32.0335
-0.4547, -0.5058, -0.8939, 17.7744, 19.3732, -44.4726
-0.0029, -0.4876, -0.9634, 26.1280, 18.3366, -69.6555
0.4053, -0.5194, -0.7125, 19.6646, 42.1171, -31.0579
0.5925, -0.4595, -0.6677, 4.5427, 36.3244, -9.5945
0.6547, -0.5143, -0.6449, -16.7988, 27.8488, 37.3567
0.2977, -0.4573, -0.7343, -26.1890, 6.8122, 58.3323
0.0564, -0.3336, -0.8950, -26.9817, -15.0780, 70.7104
-0.5589, -0.4986, -0.9575, -17.3476, -78.1268, 35.6494
-1.1098, -0.5183, -1.0664, 7.9573, -93.7366, -31.9116
-0.7246, -0.5458, -0.7775, 11.7988, 3.6415, -42.1555
-0.1353, -0.4468, -0.9315, 16.5549, 54.3732, -51.9726
0.4482, -0.5117, -0.6935, 15.7622, 64.4341, -28.2530
0.6614, -0.4916, -0.6614, 2.2256, 35.5927, 1.5030
0.5599, -0.4983, -0.7157, -11.4939, 14.6780, 32.5396
0.2123, -0.4459, -0.7788, -20.2134, -0.5049, 55.6494
-0.1698, -0.4617, -0.8638, -19.0549, -4.8951, 61.9909
-0.6535, -0.4244, -1.0779, -7.1037, -62.3341, 20.5884
-1.0214, -0.5321, -0.9744, 15.7012, -88.1268, -43.9238
-0.6521, -0.5521, -0.8892, 16.9817, 8.9463, -58.4360
0.0821, -0.4575, -0.9177, 25.8841, 68.0927, -53.2530
0.4134, -0.4975, -0.6620, 19.7866, 75.1049, -34.1677
0.5618, -0.4701, -0.6807, 5.3354, 41.0195, -13.8628
0.5986, -0.5012, -0.6588, -12.6524, 29.6780, 25.4055
0.3617, -0.4346, -0.7422, -21.7988, 19.9220, 54.2470
0.0351, -0.4736, -0.6765, -33.1402, 12.4220, 62.9055
-0.2386, -0.4751, -0.9581, -27.2866, -46.8463, 53.6982
-0.8771, -0.4789, -1.1399, -5.4573, -97.0293, -15.2043
-0.8308, -0.5200, -0.9409, 14.6646, -49.6512, -42.0945
-0.4889, -0.5145, -0.9282, 24.2378, 37.5439, -57.8872
0.2768, -0.5317, -0.7374, 17.2866, 44.5561, -57.7652
0.6945, -0.4046, -0.6495, 12.5915, 43.7024, -12.8262
0.7378, -0.4494, -0.6280, -6.4939, -3.5537, 7.7226
0.3386, -0.5278, -0.7589, -17.2256, -22.6390, 42.2348
-0.0436, -0.3988, -0.7765, -20.7012, -9.5902, 54.6738
-0.1596, -0.4476, -0.8255, -30.7012, -12.6390, 59.3079
-0.6880, -0.4870, -1.0994, -9.7866, -69.5293, 22.9055
-0.9207, -0.4932, -1.0203, 12.2256, -87.0902, -45.7530
-0.5695, -0.5238, -0.8428, 16.2500, 20.4707, -36.3628
-0.0693, -0.4314, -1.0441, 21.3720, 23.8854, -65.9360
0.3680, -0.4907, -0.7412, 21.2500, 48.7634, -28.4970
0.5381, -0.4520, -0.7084, 6.7988, 17.7878, -16.6067
0.5472, -0.5197, -0.6512, -10.5793, 18.5195, 26.5640
0.2448, -0.4946, -0.7510, -20.4573, 12.0561, 47.7835
0.0393, -0.4267, -0.8873, -24.3598, 8.3976, 64.5518
-0.4227, -0.5212, -0.8696, -17.3476, -28.0659, 39.7348
-0.8766, -0.4614, -1.1476, 5.2134, -60.5049, -12.3994
-0.6871, -0.5407, -0.8428, 16.5549, -10.8707, -37.7043
-0.2400, -0.4536, -0.8771, 21.0671, 47.1171, -45.7530
0.2849, -0.4599, -0.7399, 25.8841, 61.7512, -31.6677
0.5162, -0.4912, -0.6016, 10.5793, 39.6780, -12.1555
0.6349, -0.4980, -0.6090, -10.8232, 18.2146, 25.7713
0.3699, -0.4368, -0.7133, -24.9085, -1.6024, 47.5396
0.0564, -0.3701, -0.9017, -33.3232, -4.4683, 63.0274
-0.4885, -0.4262, -1.0177, -22.4695, -64.1634, 34.1250
-1.0775, -0.4843, -1.1666, 10.2744, -97.5780, -27.4604
-0.7715, -0.5766, -0.8968, 23.6890, 1.2634, -46.7287
-0.1158, -0.5250, -0.8840, 28.1402, 65.4707, -54.5945
0.5469, -0.5133, -0.6451, 19.6646, 87.3000, -24.4726
0.7795, -0.5141, -0.5640, -0.3963, 51.8122, 1.8079
0.6000, -0.5169, -0.6758, -21.6159, 16.4463, 40.5884
0.1740, -0.3971, -0.7712, -32.4695, 6.0805, 58.2104
-0.1224, -0.4312, -0.8570, -36.6768, -12.4561, 59.0031
-0.6491, -0.3462, -1.1055, -15.5183, -61.2976, 25.5274
-0.9942, -0.4816, -1.1089, 18.1402, -93.0049, -37.1555
-0.6679, -0.5222, -0.9156, 29.7256, 13.7024, -48.0701
-0.0300, -0.5438, -0.7670, 23.3841, 52.1171, -58.6189
0.5171, -0.4520, -0.7242, 15.3354, 53.8854, -31.1189
0.6542, -0.4847, -0.6734, 0.0915, 9.4341, -19.0457
0.5864, -0.5202, -0.7029, -16.1280, -9.5902, 30.6494
0.2839, -0.4568, -0.8030, -22.9573, -24.4683, 48.4543
-0.0402, -0.4247, -0.7639, -26.0671, 2.3000, 68.5152
-0.3601, -0.4506, -0.9883, -21.3110, -58.3707, 45.5884
-1.1212, -0.4122, -1.1833, 11.3720, -103.1268, -25.6311
-0.8739, -0.5354, -0.9103, 24.4207, -12.3951, -45.7530
-0.3195, -0.5109, -0.8577, 26.0061, 63.7634, -58.8628
0.4665, -0.4914, -0.7035, 20.5793, 79.1902, -40.6921
0.8414, -0.5314, -0.5839, 4.3598, 54.7390, -4.5945
0.7506, -0.5429, -0.6123, -18.0183, 16.0195, 37.1738
0.2538, -0.4484, -0.7397, -29.6037, -3.1268, 56.8689
-0.0653, -0.4445, -0.8210, -39.6646, -7.4561, 69.0031
-0.5822, -0.3111, -1.1046, -19.1768, -72.0293, 37.9055
-1.1408, -0.4041, -1.1191, 12.3476, -101.4805, -31.1799
-0.8118, -0.4965, -0.8837, 21.2500, -2.3341, -43.3140
-0.2468, -0.4686, -0.9085, 22.8354, 63.8244, -54.2287
0.4696, -0.5099, -0.6954, 14.8476, 65.8976, -36.6067
0.6377, -0.5321, -0.6572, 3.7500, 33.7024, -16.6677
0.6471, -0.5431, -0.6728, -12.5915, 12.3610, 24.7348
0.3206, -0.4877, -0.7544, -21.3720, 10.5317, 50.9543
0.0226, -0.4711, -0.7442, -31.5549, 9.9829, 65.2835
-0.3071, -0.3954, -1.0364, -21.4939, -59.7122, 44.7957
-1.0180, -0.3568, -1.1837, 9.6646, -99.1024, -23.3750
-0.9342, -0.4670, -0.9519, 26.4329, -35.0780, -50.8750
-0.4340, -0.4711, -0.9042, 32.9573, 47.0561, -64.4726
0.3561, -0.4778, -0.7028, 25.0305, 65.0439, -50.2043
0.5936, -0.5094, -0.6448, 15.7012, 37.3610, -31.1189
0.7030, -0.5371, -0.6224, -3.8110, 6.3854, 6.5030
0.4541, -0.5181, -0.7168, -22.4695, 5.0439, 42.2348
0.1177, -0.4335, -0.7466, -33.5671, 17.6659, 62.4787
-0.0681, -0.4229, -0.8859, -38.8720, -24.1634, 60.8323
-0.6044, -0.3480, -1.1499, -16.9817, -81.4805, 25.4055
-1.0473, -0.4241, -1.1033, 13.4451, -95.3829, -39.1677
-0.7663, -0.4951, -0.9481, 25.1524, 20.7146, -39.4116
-0.1770, -0.4772, -0.8977, 30.6402, 67.1171, -56.5457
0.4650, -0.4841, -0.7062, 24.4207, 63.3366, -30.8140
0.5513, -0.4918, -0.6833, 13.3232, 19.8000, -22.7043
0.5505, -0.5555, -0.6644, -3.8720, 8.7634, 13.3933
0.3667, -0.5139, -0.6774, -17.9573, 18.5805, 46.2591
0.1447, -0.4804, -0.7018, -27.7744, 21.6293, 64.0031
-0.0646, -0.4931, -0.7867, -30.4573, -32.3951, 59.3689
-0.6337, -0.4282, -1.0418, -12.4085, -88.8585, 20.3445
-1.0061, -0.5186, -0.9770, 10.7622, -99.5293, -41.0579
-0.6984, -0.5257, -0.8371, 17.7134, 3.1537, -40.7530
-0.1437, -0.4880, -0.8693, 20.8841, 42.2390, -55.8750
0.3299, -0.4881, -0.7734, 20.0305, 34.5561, -41.9116
0.4453, -0.5054, -0.7382, 8.8110, 9.1293, -24.5945
0.4771, -0.5083, -0.7531, -4.9695, 15.8976, 9.3079
0.3334, -0.4941, -0.7808, -17.7744, 21.7512, 39.7957
0.1080, -0.4633, -0.8293, -27.5305, 24.5561, 56.8079
-0.1422, -0.4616, -0.9169, -29.9085, -38.0659, 47.6616
-0.8748, -0.4160, -1.1419, -3.1402, -103.3707, -8.8018
-1.0532, -0.5281, -0.9402, 17.4695, -67.8220, -58.7409
-0.6411, -0.4929, -0.9040, 26.3720, 37.1171, -67.8262
0.2359, -0.4478, -0.7472, 23.5061, 75.9585, -53.1921
0.4827, -0.4617, -0.6664, 18.9329, 58.5195, -43.8018
0.6960, -0.5000, -0.6133, 2.2866, 19.9829, -9.4116
0.5814, -0.5246, -0.6578, -18.8720, 9.1902, 31.7470
0.2468, -0.4466, -0.7574, -29.1768, 8.8244, 54.4909
0.0087, -0.4415, -0.8259, -37.2866, 1.1415, 67.1128
-0.4717, -0.4124, -1.0094, -25.2134, -41.0537, 47.6006
-0.9199, -0.4353, -1.1455, 0.1524, -85.0171, -16.6067
-0.8555, -0.5251, -0.9049, 20.6402, -24.5293, -42.3384
-0.3958, -0.5034, -0.8688, 23.8110, 47.4220, -54.4116
0.2545, -0.5002, -0.7812, 20.7012, 52.9707, -55.0213
0.5491, -0.4780, -0.6262, 10.9451, 47.3610, -24.5945
0.7374, -0.4977, -0.6400, -8.2012, 17.2390, 7.4787
0.5060, -0.5060, -0.7109, -21.2500, 0.3488, 44.1250
0.2058, -0.4122, -0.8208, -28.8720, -4.5293, 66.3201
-0.1288, -0.4518, -0.8346, -32.6524, -32.7610, 60.7713
-0.7547, -0.3767, -1.1486, -14.7866, -87.7610, 21.8689
-1.1461, -0.5270, -1.0429, 15.5183, -100.0171, -48.3140
-0.7619, -0.5404, -0.8890, 23.7500, 28.0317, -48.9238
-0.0561, -0.4948, -0.7961, 21.3110, 74.0683, -64.2287
0.5748, -0.4590, -0.6819, 14.0549, 77.1171, -29.1067
0.7203, -0.4732, -0.6389, -0.1524, 20.8976, -12.2774
0.5960, -0.5093, -0.6763, -16.6768, -4.2244, 30.8323
0.2111, -0.4539, -0.7188, -26.2500, -8.1878, 53.6982
-0.0549, -0.4193, -0.7819, -33.6280, -9.3463, 64.7957
-0.4353, -0.4043, -1.0104, -19.5427, -67.3341, 42.1738
-1.0823, -0.4187, -1.1576, 8.0793, -99.6512, -24.9604
-0.8410, -0.5190, -0.9152, 21.0671, -10.9317, -40.3872
-0.3461, -0.4841, -0.8705, 23.0793, 56.8732, -55.5091
0.3212, -0.4815, -0.7635, 15.8232, 58.2146, -46.2409
0.5488, -0.4581, -0.7057, 8.2012, 32.6659, -25.3872
0.5494, -0.4845, -0.7238, -4.9085, -1.4195, 1.8079
0.3959, -0.4969, -0.7538, -15.8232, 6.8122, 39.0640
0.1446, -0.4321, -0.7540, -21.6768, 13.2756, 60.4055
-0.0455, -0.4315, -0.8133, -28.1402, -9.4683, 61.6250
-0.5870, -0.3987, -1.0557, -13.6280, -63.3707, 32.1738
-1.0372, -0.4810, -1.0552, 9.4817, -79.5902, -30.0823
-0.7068, -0.5427, -0.8849, 19.5427, 10.7756, -37.2165
-0.2410, -0.4898, -0.8813, 24.1768, 60.1049, -50.6921
0.3307, -0.4952, -0.7545, 18.5061, 50.0439, -43.9848
0.4654, -0.4641, -0.6907, 10.0305, 27.8488, -21.7896
0.5345, -0.4921, -0.6932, -5.0305, 6.2634, 1.8079
0.3560, -0.4907, -0.7446, -15.7622, 9.1293, 34.6128
0.1026, -0.4431, -0.7885, -20.7012, 16.9951, 52.0518
-0.0663, -0.4384, -0.7687, -29.3598, -2.7610, 55.2835
-0.5080, -0.3972, -1.0611, -13.7500, -57.3341, 28.6372
-0.9462, -0.4918, -1.0573, 10.4573, -96.2976, -39.0457
-0.7285, -0.5104, -0.9176, 22.8354, -5.2000, -44.1677
-0.2479, -0.5086, -0.8505, 21.6768, 45.4098, -61.3628
0.3996, -0.4521, -0.7344, 16.5549, 69.0683, -33.0701
0.6171, -0.4696, -0.6564, 5.9451, 35.7146, -14.8384
0.5853, -0.5107, -0.6741, -10.4573, 6.3244, 20.4055
0.2660, -0.4961, -0.7366, -20.2134, 0.5927, 46.0152
0.0492, -0.4439, -0.7627, -29.4817, 5.7756, 59.7348
-0.2283, -0.4246, -0.9766, -23.9939, -53.7976, 47.2957
-0.9472, -0.4044, -1.1635, 0.7622, -99.7732, -16.3018
-0.9038, -0.5288, -0.9615, 18.8110, -44.3463, -45.6921
-0.4557, -0.4692, -0.9098, 24.2378, 50.2878, -51.6067
0.1944, -0.4967, -0.7624, 20.0305, 64.3122, -48.7409
0.5512, -0.4610, -0.6633, 10.1524, 49.1293, -18.9238
0.6232, -0.4970, -0.6635, -6.6159, 8.9463, 3.0274
0.3948, -0.5101, -0.7310, -18.6280, 0.3488, 35.7104
0.1109, -0.4572, -0.7619, -25.5183, 9.2512, 56.0762
-0.0761, -0.4155, -0.8812, -26.6159, -22.8829, 56.6250
-0.6076, -0.4259, -1.0859, -9.6037, -61.3585, 22.7835
-0.9031, -0.4588, -1.0715, 13.9939, -69.1024, -29.8384
-0.5983, -0.4956, -0.8833, 23.6280, 20.7146, -35.7530
-0.1629, -0.4989, -0.8292, 24.2988, 43.3976, -51.9726
0.2793, -0.4621, -0.8290, 23.6280, 27.2390, -49.8384
0.4083, -0.5056, -0.6941, 13.5061, 18.2146, -28.8628
0.5540, -0.5289, -0.6638, -3.0183, 20.8366, 5.4055
0.4374, -0.5162, -0.7075, -16.5549, 25.7146, 39.9787
0.1527, -0.4611, -0.7761, -24.6646, 20.5317, 59.9177
-0.1121, -0.4088, -0.8821, -24.2988, -16.6634, 54.9177
-0.6526, -0.4276, -1.0664, -6.9817, -56.8463, 19.1860
-0.8795, -0.4729, -1.0192, 14.5427, -44.9561, -29.9604
-0.4700, -0.5293, -0.8371, 20.4573, 42.3610, -27.2165
-0.1416, -0.4871, -0.8200, 23.3232, 51.8732, -44.2287
0.2641, -0.5431, -0.7211, 16.4329, 27.1780, -48.8018
0.4857, -0.5023, -0.6454, 4.1768, 22.4220, -17.3994
0.5976, -0.4808, -0.6710, -10.8232, 8.6415, 5.4055
0.4236, -0.5009, -0.7553, -19.5427, 0.3488, 40.5884
0.1417, -0.4458, -0.7951, -26.3110, -1.9073, 55.6494
-0.2052, -0.4301, -0.9861, -23.8720, -47.0902, 45.2835
-0.8536, -0.4425, -1.1109, 2.2866, -89.5902, -5.1433
-0.8258, -0.5052, -0.9137, 17.3476, -54.1634, -46.1189
-0.4180, -0.5054, -0.8680, 20.6402, 20.7756, -50.2043
0.0760, -0.4864, -0.8631, 19.1768, 32.4829, -57.0945
0.5881, -0.4866, -0.6616, 8.6890, 46.8122, -20.5701
0.7354, -0.4903, -0.6185, -7.6524, 23.5195, 14.6738
0.4829, -0.5272, -0.7026, -21.1890, 4.4341, 47.1128
0.1373, -0.4464, -0.7598, -30.4573, -0.6268, 68.0884
-0.3089, -0.4143, -0.9337, -20.9451, -47.0293, 51.3811
-0.9724, -0.3939, -1.1545, 5.3354, -102.1512, -6.9116
-0.9697, -0.5712, -0.9020, 22.8963, -43.6146, -46.5457
-0.3527, -0.5144, -0.8448, 20.4573, 46.9341, -47.2774
0.3347, -0.4476, -0.7758, 19.2378, 71.2024, -38.6189
0.6448, -0.5123, -0.6382, 5.0305, 45.1049, -10.6921
0.6826, -0.5013, -0.6831, -12.7744, 17.9098, 25.3445
0.3334, -0.4846, -0.7566, -24.5427, 4.4341, 50.4055
-0.0123, -0.4063, -0.8269, -30.0305, 5.4707, 66.7470
-0.4691, -0.4154, -1.0233, -21.3720, -53.3707, 40.8323
-1.0794, -0.4649, -1.1192, 11.7378, -101.1146, -26.7896
-0.8797, -0.5334, -0.9040, 24.3598, -1.8463, -48.2530
-0.3200, -0.5501, -0.7962, 26.7988, 66.2634, -62.3994
0.3654, -0.4846, -0.7484, 20.8232, 69.3732, -47.2165
0.5206, -0.4835, -0.7020, 12.2866, 29.4951, -38.1311
0.6221, -0.5289, -0.6455, -2.9573, 4.8610, -1.4848
0.5112, -0.5235, -0.6827, -17.7134, 11.3854, 40.1616
0.2750, -0.4235, -0.8235, -25.1524, 3.3366, 63.6372
-0.1904, -0.4159, -0.8876, -27.7134, -41.2366, 54.6128
-0.9087, -0.4530, -1.1138, -0.0915, -112.2122, 0.5274
-1.0097, -0.5526, -0.9180, 19.6646, -61.7854, -43.4969
-0.4783, -0.5401, -0.8197, 22.0427, 53.9463, -40.3872
0.1355, -0.5232, -0.7844, 18.5671, 69.8000, -46.7287
0.5724, -0.4856, -0.6713, 9.8476, 53.9463, -14.7774
0.5648, -0.4797, -0.6701, -6.0671, 3.1537, 2.2348
0.2190, -0.4710, -0.7982, -13.5061, -20.8098, 17.1738
-0.0936, -0.4371, -0.8948, -10.8232, -23.1878, 24.3079
-0.2359, -0.4907, -0.8512, -8.3232, -13.4317, 21.8689
-0.2864, -0.5159, -0.8959, -4.1768, -12.7610, 12.8445
-0.3278, -0.5327, -0.9112, 3.6890, -2.9439, -4.0457
-0.1286, -0.5304, -0.8299, 4.0549, 17.8488, -7.4604
0.0291, -0.5205, -0.8145, 1.8598, 28.2146, -4.1067
0.1326, -0.5162, -0.7941, -2.1646, 19.0683, 2.4177
0.0506, -0.4983, -0.8245, -2.9573, 0.7756, 4.6738
-0.0457, -0.4998, -0.8592, -2.4695, -10.3829, 2.7835
-0.1262, -0.4919, -0.8593, 1.0061, -5.9927, 0.5274
