ax,ay,az,gx,gy,gz
-0.16,-0.81,-0.38,-20.45,23.73,-4.56
-0.07,-0.88,-0.26,-28.91,24.53,-5.25
-0.01,-0.86,-0.35,-26.25,22.03,-6.54
-0.03,-0.79,-0.58,-8.88,32.69,-2.47
-0.05,-0.72,-0.68,3.36,33.76,-2.03
-0.03,-0.76,-0.47,-5.29,22.16,-0.5
-0.01,-0.87,-0.29,-19.15,9.38,-3.12
0.02,-0.92,-0.31,-24.22,-10.84,-6.45
0.04,-0.87,-0.38,-27.08,-26.98,-3.44
0.03,-0.83,-0.4,-32.71,-42.61,1.48
0.02,-0.8,-0.44,-32.26,-50.4,-1.22
0.03,-0.74,-0.51,-31.21,-47.57,1.84
0.0,-0.75,-0.46,-37.33,-48.54,-1.56
-0.04,-0.86,-0.37,-50.81,-52.29,-0.21
0.05,-0.92,-0.46,-53.28,-52.07,0.09
0.11,-0.83,-0.66,-40.07,-48.98,1.68
-0.01,-0.73,-0.71,-29.41,-33.56,-4.95
-0.15,-0.76,-0.58,-30.77,-20.31,-7.84
-0.13,-0.85,-0.51,-35.0,-17.7,-9.1
-0.05,-0.87,-0.55,-34.82,-9.79,-11.72
-0.06,-0.79,-0.64,-23.12,0.45,-12.79
-0.12,-0.71,-0.66,-16.52,0.51,-13.92
-0.05,-0.7,-0.62,-11.1,-10.64,-9.15
0.09,-0.75,-0.56,-13.63,-17.32,-5.69
0.07,-0.79,-0.51,-15.85,-6.63,-4.39
-0.01,-0.76,-0.52,-13.57,0.64,-4.62
-0.03,-0.72,-0.57,-9.23,11.08,-3.36
0.04,-0.69,-0.6,-5.64,15.7,2.5
0.09,-0.71,-0.56,-6.47,18.43,8.04
0.01,-0.78,-0.49,-18.57,33.34,6.99
-0.01,-0.8,-0.49,-19.71,52.01,20.39
0.12,-0.73,-0.51,-22.89,12.98,-0.14
-0.1,-0.7,-0.56,-15.12,35.74,5.65
-0.13,-0.71,-0.61,-13.41,34.88,19.35
0.15,-0.71,-0.61,-11.28,11.63,15.76
0.27,-0.7,-0.62,-4.95,12.73,29.04
0.24,-0.69,-0.62,-1.66,13.02,30.13
0.09,-0.75,-0.55,-2.77,23.02,28.72
-0.07,-0.86,-0.44,-14.87,44.8,25.45
-0.16,-0.97,-0.4,-27.35,62.42,19.82
-0.16,-0.94,-0.42,-35.51,57.66,15.37
-0.03,-0.88,-0.5,-30.2,44.46,15.83
0.1,-0.8,-0.58,-24.25,33.22,14.14
0.08,-0.77,-0.62,-17.56,35.29,10.75
-0.03,-0.77,-0.64,-12.57,44.78,6.22
-0.15,-0.78,-0.62,-13.93,54.44,3.91
-0.15,-0.82,-0.56,-18.77,53.96,2.82
-0.07,-0.82,-0.55,-20.68,34.64,-1.51
-0.01,-0.79,-0.55,-19.89,12.82,-3.65
0.02,-0.8,-0.53,-24.36,2.58,-6.77
0.04,-0.82,-0.52,-26.87,-7.36,-5.47
0.08,-0.81,-0.51,-28.61,-16.21,-6.83
0.07,-0.78,-0.49,-31.14,-33.05,-7.72
0.04,-0.78,-0.5,-28.86,-38.14,-13.49
-0.0,-0.77,-0.59,-20.97,-39.09,-12.22
0.01,-0.76,-0.6,-18.43,-36.25,-7.2
0.05,-0.79,-0.52,-19.57,-35.07,-10.24
-0.02,-0.81,-0.46,-26.71,-12.46,-15.06
-0.14,-0.8,-0.48,-26.01,16.16,-18.59
-0.19,-0.75,-0.56,-19.84,44.79,-20.28
-0.14,-0.72,-0.6,-11.59,60.25,-18.75
-0.06,-0.7,-0.56,-8.64,64.0,-21.2
-0.07,-0.72,-0.5,-11.18,64.0,-27.26
-0.06,-0.73,-0.53,-5.39,64.0,-24.75
0.02,-0.71,-0.59,4.73,64.0,-26.73
0.02,-0.69,-0.62,14.77,64.0,-31.04
-0.03,-0.69,-0.57,14.42,64.0,-31.83
-0.06,-0.74,-0.47,5.79,64.0,-34.7
0.04,-0.81,-0.43,-1.39,64.0,-27.12
0.16,-0.78,-0.39,-15.98,64.0,-32.27
0.22,-0.77,-0.42,-15.77,64.0,-25.09
0.45,-0.75,-0.52,-10.99,64.0,-9.27
0.53,-0.79,-0.49,-15.85,38.02,-8.98
0.39,-0.8,-0.43,-21.69,35.81,-6.85
0.3,-0.78,-0.42,-27.6,44.54,-3.72
0.28,-0.76,-0.48,-29.95,50.32,1.13
0.32,-0.76,-0.49,-33.95,38.73,3.43
0.37,-0.78,-0.47,-33.2,22.39,3.6
0.38,-0.79,-0.48,-32.75,4.22,6.38
0.32,-0.8,-0.48,-33.86,-8.54,4.25
0.24,-0.8,-0.49,-32.78,-11.24,6.44
0.23,-0.79,-0.45,-36.09,-17.07,3.26
0.24,-0.8,-0.38,-42.1,-41.39,1.8
0.31,-0.8,-0.36,-42.62,-64.0,6.9
0.34,-0.78,-0.4,-41.51,-64.0,8.19
0.32,-0.76,-0.43,-35.68,-64.0,9.15
0.23,-0.75,-0.49,-27.33,-64.0,10.36
0.13,-0.74,-0.54,-25.69,-64.0,11.59
0.06,-0.74,-0.51,-22.29,-64.0,11.36
0.07,-0.73,-0.54,-10.61,-64.0,10.28
0.06,-0.7,-0.53,-7.88,-64.0,6.35
-0.02,-0.69,-0.53,-6.34,-64.0,2.3
-0.06,-0.68,-0.65,1.27,-59.07,1.66
-0.02,-0.69,-0.68,8.39,-62.96,1.8
0.02,-0.72,-0.57,7.86,-63.25,4.07
0.13,-0.78,-0.51,0.47,-57.11,11.44
0.18,-0.81,-0.53,-0.34,-54.59,10.86
0.1,-0.78,-0.56,-4.04,-27.36,11.8
0.03,-0.78,-0.61,-9.63,-21.44,15.25
-0.01,-0.8,-0.64,-15.7,-31.18,18.11
0.06,-0.81,-0.6,-16.28,-52.72,14.54
0.1,-0.81,-0.58,-15.04,-64.0,8.6
0.03,-0.87,-0.55,-17.21,-64.0,2.58
-0.1,-0.89,-0.53,-16.76,-64.0,-5.54
-0.23,-0.9,-0.56,-20.33,-45.97,-10.78
-0.25,-0.89,-0.55,-26.95,-31.19,-11.31
-0.17,-0.88,-0.54,-25.45,-22.97,-14.69
-0.11,-0.83,-0.54,-23.51,-27.46,-18.8
-0.1,-0.79,-0.53,-18.51,-25.7,-24.26
-0.11,-0.8,-0.48,-23.55,-31.97,-26.84
-0.09,-0.81,-0.49,-21.06,-22.17,-23.16
-0.05,-0.74,-0.49,-24.53,-23.09,-19.27
-0.04,-0.66,-0.44,-27.74,-20.96,-14.45
-0.01,-0.62,-0.42,-27.3,-23.04,-10.22
-0.0,-0.62,-0.43,-29.21,-27.11,-10.31
-0.03,-0.63,-0.47,-28.35,-28.79,-10.34
-0.07,-0.64,-0.51,-25.91,-22.39,-8.82
-0.1,-0.65,-0.56,-20.46,-19.27,-9.88
-0.13,-0.68,-0.6,-15.63,-17.41,-11.12
-0.16,-0.73,-0.6,-12.41,-19.06,-14.25
-0.15,-0.77,-0.61,-7.57,-15.57,-17.78
-0.11,-0.78,-0.61,-5.07,-6.69,-18.83
-0.08,-0.78,-0.62,-3.88,4.05,-19.56
-0.1,-0.76,-0.63,-2.46,17.64,-14.3
-0.06,-0.74,-0.61,-5.08,24.81,-11.88
-0.02,-0.74,-0.57,-7.09,28.27,-8.02
-0.03,-0.73,-0.56,-12.22,18.23,-11.86
-0.06,-0.73,-0.58,-14.17,10.95,-13.02
-0.03,-0.73,-0.56,-18.68,-1.99,-15.01
0.01,-0.75,-0.56,-25.58,-10.51,-12.56
0.02,-0.75,-0.58,-25.01,-14.5,-9.37
-0.01,-0.73,-0.56,-25.8,-13.6,-8.72
-0.0,-0.74,-0.57,-26.85,-13.29,-3.66
0.06,-0.76,-0.61,-25.57,-13.31,0.13
0.09,-0.75,-0.61,-21.64,-18.79,1.16
0.02,-0.76,-0.6,-21.57,-14.98,1.91
-0.05,-0.77,-0.59,-19.35,-8.55,2.67
-0.06,-0.77,-0.59,-17.79,-7.24,-1.96
-0.07,-0.78,-0.59,-18.57,-11.22,-6.41
-0.07,-0.79,-0.61,-15.28,-14.39,-8.01
-0.06,-0.79,-0.62,-14.87,-17.55,-9.43
-0.04,-0.8,-0.6,-11.93,-17.3,-10.76
-0.02,-0.8,-0.58,-12.4,-18.61,-9.04
-0.01,-0.79,-0.56,-12.59,-18.75,-10.2
0.0,-0.77,-0.52,-15.15,-18.29,-9.09
-0.01,-0.75,-0.52,-15.62,-23.45,-9.56
-0.03,-0.72,-0.51,-17.23,-28.5,-6.81
-0.03,-0.69,-0.5,-17.71,-30.97,-5.46
-0.01,-0.67,-0.49,-18.95,-30.59,0.11
-0.0,-0.65,-0.47,-26.72,-27.6,2.71
-0.02,-0.65,-0.48,-29.37,-28.29,6.34
-0.01,-0.63,-0.51,-26.12,-19.21,11.66
0.03,-0.62,-0.56,-23.78,-13.0,16.82
0.03,-0.63,-0.6,-20.36,-3.67,23.44
0.03,-0.7,-0.63,-15.79,-3.6,26.54
-0.0,-0.8,-0.67,-10.27,-12.71,25.38
-0.04,-0.93,-0.67,-7.63,-17.78,19.75
-0.09,-0.99,-0.66,-8.24,-22.79,11.89
-0.2,-1.0,-0.67,-0.96,-21.45,-0.85
-0.3,-0.95,-0.64,-1.87,-11.46,-13.02
-0.33,-0.95,-0.58,-12.41,6.62,-18.12
-0.31,-0.95,-0.52,-18.94,23.66,-24.63
-0.26,-0.87,-0.48,-26.13,28.26,-29.64
-0.17,-0.73,-0.45,-30.74,26.38,-24.7
-0.07,-0.64,-0.43,-34.86,15.5,-18.29
-0.0,-0.55,-0.44,-37.36,0.88,-9.79
0.07,-0.48,-0.44,-37.56,-1.33,5.47
0.17,-0.44,-0.51,-34.39,-7.27,16.84
0.16,-0.42,-0.59,-24.47,-11.22,22.41
0.05,-0.44,-0.63,-12.27,-8.44,25.64
-0.05,-0.52,-0.68,-4.67,6.39,27.6
-0.09,-0.67,-0.71,5.26,14.63,27.92
-0.12,-0.82,-0.73,14.4,16.02,24.46
-0.14,-0.98,-0.72,22.41,11.3,21.14
-0.18,-1.07,-0.67,21.83,4.22,10.75
-0.24,-1.07,-0.6,23.12,9.68,-2.08
-0.32,-0.98,-0.52,16.46,22.31,-17.3
-0.37,-0.92,-0.43,-1.23,40.63,-27.67
-0.3,-0.9,-0.35,-17.34,49.52,-31.39
-0.17,-0.83,-0.31,-32.81,41.68,-28.96
-0.05,-0.73,-0.3,-45.73,12.9,-22.56
0.02,-0.64,-0.34,-57.92,-18.51,-11.79
0.15,-0.55,-0.44,-54.79,-22.32,11.96
0.33,-0.41,-0.59,-38.21,-25.88,31.51
0.32,-0.34,-0.68,-21.24,-24.73,33.33
0.13,-0.35,-0.71,-3.11,-21.39,30.3
-0.08,-0.48,-0.73,9.48,3.07,32.71
-0.18,-0.69,-0.7,14.8,18.93,26.05
-0.2,-0.92,-0.66,16.54,23.69,20.59
-0.18,-1.07,-0.64,17.84,16.29,15.3
-0.18,-1.14,-0.62,24.39,12.64,0.47
-0.31,-1.11,-0.57,23.33,25.44,-15.25
-0.44,-1.04,-0.46,7.97,50.44,-29.07
-0.32,-0.99,-0.4,1.84,57.49,-32.23
-0.09,-0.93,-0.34,-19.94,33.24,-31.47
0.03,-0.84,-0.29,-41.87,4.39,-22.7
0.03,-0.68,-0.28,-61.0,-18.58,-14.31
0.01,-0.51,-0.37,-62.6,-28.25,-2.78
0.04,-0.32,-0.56,-47.54,-9.72,13.58
0.15,-0.21,-0.74,-24.1,13.89,32.19
0.19,-0.2,-0.8,8.59,24.35,26.27
0.08,-0.34,-0.77,24.22,32.88,32.05
-0.02,-0.68,-0.71,31.2,39.03,29.42
-0.05,-1.01,-0.6,27.51,38.09,27.1
-0.04,-1.22,-0.54,15.16,17.93,33.65
-0.05,-1.24,-0.57,29.07,3.18,17.19
-0.27,-1.12,-0.51,29.54,-5.9,-12.8
-0.52,-1.08,-0.37,5.46,28.89,-29.74
-0.42,-1.06,-0.32,-11.35,48.47,-36.23
-0.16,-0.94,-0.3,-30.01,41.01,-33.84
0.08,-0.8,-0.3,-50.82,20.81,-19.68
0.16,-0.65,-0.33,-57.99,-8.71,-7.23
0.13,-0.49,-0.42,-54.77,-22.08,-3.74
0.08,-0.36,-0.54,-43.21,-24.8,2.12
0.04,-0.32,-0.64,-28.1,-7.54,10.11
0.14,-0.36,-0.77,5.67,23.73,23.8
0.24,-0.46,-0.78,14.1,25.02,31.55
0.13,-0.67,-0.71,16.32,27.04,40.88
0.05,-0.83,-0.65,21.96,22.29,45.86
-0.01,-1.0,-0.63,33.36,15.6,30.68
-0.14,-1.17,-0.56,27.35,-1.39,11.56
-0.33,-1.29,-0.49,24.13,11.15,-2.48
-0.41,-1.23,-0.47,17.65,24.94,-28.29
-0.5,-1.11,-0.3,-17.21,51.99,-39.46
-0.24,-1.0,-0.25,-26.01,63.68,-27.32
0.09,-0.79,-0.25,-48.05,35.19,-21.86
0.17,-0.61,-0.25,-64.0,0.13,-2.71
0.19,-0.43,-0.32,-64.0,-32.39,10.14
0.19,-0.3,-0.45,-54.23,-49.66,15.48
0.13,-0.27,-0.57,-26.79,-42.93,16.17
0.03,-0.35,-0.63,-6.95,-25.95,16.03
-0.04,-0.56,-0.69,6.19,6.57,17.98
-0.02,-0.77,-0.73,15.97,31.06,25.64
0.04,-0.94,-0.72,26.48,34.11,30.17
0.08,-1.1,-0.66,32.51,20.0,28.56
0.04,-1.26,-0.6,31.48,-3.22,17.75
-0.15,-1.3,-0.54,35.21,-2.18,-10.56
-0.53,-1.24,-0.36,-2.05,4.42,-40.44
-0.57,-1.19,-0.3,-17.35,50.89,-41.27
-0.16,-1.02,-0.28,-31.94,46.11,-39.59
0.06,-0.81,-0.23,-57.6,20.61,-27.48
0.15,-0.64,-0.24,-64.0,-8.43,-8.21
0.19,-0.42,-0.35,-64.0,-29.65,7.38
0.2,-0.23,-0.51,-56.98,-40.55,16.87
0.17,-0.11,-0.66,-34.74,-32.38,20.1
0.08,-0.15,-0.7,-6.48,-15.28,19.9
-0.05,-0.35,-0.7,6.3,11.4,21.63
-0.07,-0.66,-0.68,15.17,34.22,26.68
0.0,-0.92,-0.64,23.16,39.75,30.74
0.11,-1.16,-0.62,28.71,12.57,33.59
0.12,-1.34,-0.62,39.29,-5.59,24.29
-0.12,-1.37,-0.5,25.85,-10.84,-2.59
-0.54,-1.31,-0.33,-3.19,5.14,-33.38
-0.56,-1.21,-0.31,-16.81,37.99,-44.42
-0.27,-1.03,-0.29,-34.41,41.93,-47.25
0.04,-0.86,-0.24,-60.6,22.07,-34.92
0.17,-0.7,-0.24,-64.0,-9.5,-13.62
0.23,-0.47,-0.37,-64.0,-24.65,7.42
0.27,-0.26,-0.54,-54.61,-33.89,20.22
0.21,-0.13,-0.68,-24.79,-37.29,19.7
0.08,-0.2,-0.71,3.76,-17.14,18.43
-0.04,-0.44,-0.7,16.43,17.88,19.86
-0.06,-0.71,-0.67,17.65,47.78,24.48
-0.02,-0.91,-0.61,20.17,50.33,29.13
0.05,-1.07,-0.56,20.57,23.99,28.84
0.11,-1.22,-0.6,35.19,-0.88,19.97
-0.09,-1.28,-0.5,27.0,-13.96,-6.75
-0.49,-1.27,-0.34,7.84,4.58,-31.52
-0.55,-1.24,-0.28,-11.61,38.89,-45.28
-0.26,-1.12,-0.26,-27.84,38.55,-47.69
0.01,-0.92,-0.22,-57.89,13.16,-37.59
0.14,-0.74,-0.22,-64.0,-10.19,-20.0
0.19,-0.49,-0.32,-64.0,-31.19,2.49
0.25,-0.26,-0.51,-64.0,-33.56,21.07
0.25,-0.08,-0.67,-39.54,-40.62,27.29
0.14,-0.09,-0.73,-4.41,-26.89,21.14
-0.03,-0.31,-0.7,13.02,-0.98,18.25
-0.1,-0.66,-0.68,17.49,34.86,18.91
-0.05,-0.98,-0.63,16.52,46.85,24.06
0.06,-1.17,-0.58,18.67,29.14,29.14
0.16,-1.29,-0.56,21.62,-8.2,27.6
0.1,-1.32,-0.6,42.4,-19.67,9.99
-0.34,-1.22,-0.43,10.19,-29.16,-28.65
-0.71,-1.18,-0.25,-22.64,27.71,-48.0
-0.44,-1.08,-0.26,-30.08,51.37,-48.1
-0.03,-0.86,-0.25,-52.9,34.13,-46.28
0.15,-0.71,-0.25,-64.0,-0.7,-30.07
0.22,-0.56,-0.34,-64.0,-34.03,-10.47
0.27,-0.39,-0.51,-62.64,-36.66,7.08
0.27,-0.23,-0.68,-34.37,-34.76,13.56
0.16,-0.23,-0.74,-5.24,-14.03,11.88
0.03,-0.4,-0.75,11.24,12.13,15.98
-0.05,-0.67,-0.72,15.89,45.05,16.08
-0.04,-0.91,-0.64,17.12,55.6,19.38
0.03,-1.08,-0.55,13.32,52.34,23.75
0.13,-1.19,-0.5,10.34,20.64,21.02
0.11,-1.2,-0.52,21.39,-6.34,7.8
-0.17,-1.13,-0.48,19.04,-11.4,-20.08
-0.51,-1.11,-0.25,-16.97,8.06,-39.42
-0.39,-1.06,-0.24,-27.06,43.68,-36.97
-0.04,-0.87,-0.22,-46.03,19.75,-34.49
0.14,-0.69,-0.21,-64.0,-12.17,-21.67
0.2,-0.57,-0.3,-64.0,-47.04,-9.54
0.17,-0.4,-0.45,-58.33,-53.85,-1.41
0.13,-0.3,-0.6,-42.33,-39.42,5.81
0.08,-0.31,-0.66,-19.03,-12.27,9.25
0.07,-0.43,-0.71,-2.87,15.31,17.56
0.1,-0.6,-0.75,5.08,31.67,27.88
0.17,-0.8,-0.74,16.02,40.96,39.89
0.22,-0.91,-0.68,22.7,24.37,43.72
0.18,-1.07,-0.63,30.76,-0.71,33.9
0.01,-1.2,-0.6,35.29,0.3,15.84
-0.32,-1.25,-0.37,6.82,-1.92,-18.82
-0.54,-1.25,-0.29,-6.42,33.18,-31.0
-0.38,-1.15,-0.31,-20.19,43.44,-38.78
-0.07,-0.98,-0.3,-29.34,29.23,-36.92
0.13,-0.82,-0.28,-43.3,-0.98,-27.2
0.21,-0.7,-0.27,-56.82,-29.25,-14.94
0.18,-0.53,-0.32,-63.6,-48.52,-5.12
0.13,-0.37,-0.47,-51.91,-46.15,4.12
0.07,-0.27,-0.59,-35.36,-33.8,6.61
0.05,-0.31,-0.67,-12.5,-3.99,15.38
0.09,-0.4,-0.7,2.26,17.26,25.03
0.08,-0.62,-0.7,6.11,36.03,30.18
0.1,-0.77,-0.67,4.1,40.71,39.24
0.13,-0.9,-0.62,7.75,27.6,41.54
0.12,-1.0,-0.63,23.51,12.33,31.3
0.02,-1.19,-0.65,33.14,-1.74,10.83
-0.21,-1.33,-0.49,10.59,-0.37,-5.2
-0.39,-1.33,-0.39,2.07,26.64,-22.22
-0.38,-1.2,-0.34,-14.65,40.07,-38.96
-0.17,-1.06,-0.32,-25.91,41.42,-42.2
0.07,-0.93,-0.29,-42.12,20.47,-36.58
0.2,-0.77,-0.28,-59.14,-8.9,-26.45
0.21,-0.59,-0.28,-64.0,-35.82,-11.74
0.18,-0.41,-0.38,-64.0,-44.43,2.55
0.17,-0.25,-0.51,-52.79,-40.25,15.8
0.14,-0.19,-0.62,-27.78,-23.59,20.57
0.1,-0.26,-0.68,-3.55,1.06,27.95
0.03,-0.47,-0.69,3.81,18.92,25.78
-0.04,-0.74,-0.66,4.92,39.04,30.66
0.01,-0.92,-0.65,16.58,39.49,34.53
0.08,-1.09,-0.61,27.52,19.91,26.63
0.05,-1.29,-0.58,28.12,-5.18,13.23
-0.13,-1.33,-0.48,18.91,-7.79,-3.86
-0.41,-1.24,-0.34,1.04,9.49,-31.19
-0.43,-1.13,-0.28,-11.66,34.09,-39.93
-0.15,-1.01,-0.25,-30.52,29.02,-41.24
0.1,-0.86,-0.23,-49.87,9.1,-31.09
0.23,-0.69,-0.29,-59.91,-19.37,-19.8
0.24,-0.48,-0.39,-60.56,-39.9,-5.78
0.26,-0.34,-0.55,-47.83,-36.71,8.92
0.27,-0.26,-0.69,-23.97,-20.43,15.01
0.22,-0.29,-0.75,-2.47,-0.15,20.89
0.14,-0.47,-0.76,9.97,21.43,28.79
0.08,-0.73,-0.7,12.44,35.31,33.7
0.07,-0.91,-0.61,12.67,32.99,36.57
0.07,-1.07,-0.56,19.2,6.15,26.95
-0.05,-1.21,-0.54,22.1,-7.65,8.44
-0.25,-1.26,-0.42,9.28,-4.16,-11.32
-0.43,-1.21,-0.31,-8.7,19.62,-28.11
-0.37,-1.11,-0.26,-20.13,34.68,-37.41
-0.1,-0.99,-0.25,-35.56,22.83,-37.31
0.1,-0.87,-0.24,-50.51,-1.38,-32.94
0.18,-0.71,-0.27,-61.98,-28.12,-23.63
0.13,-0.53,-0.35,-64.0,-41.53,-12.68
0.14,-0.38,-0.48,-54.78,-37.87,1.34
0.22,-0.27,-0.61,-38.07,-18.75,18.4
0.27,-0.26,-0.68,-14.3,-14.63,23.58
0.25,-0.35,-0.72,1.15,-5.42,32.52
0.15,-0.57,-0.71,5.72,4.66,37.57
0.03,-0.8,-0.68,5.65,16.11,39.79
0.01,-0.95,-0.64,12.51,19.39,38.61
0.0,-1.09,-0.61,20.67,0.7,19.82
-0.07,-1.26,-0.59,29.17,0.86,4.56
-0.25,-1.37,-0.43,7.78,-1.41,-13.73
-0.43,-1.33,-0.34,-10.57,29.93,-31.68
-0.31,-1.16,-0.34,-14.69,37.81,-42.54
-0.03,-0.98,-0.35,-22.34,31.51,-44.07
0.14,-0.87,-0.34,-36.16,3.24,-38.42
0.18,-0.75,-0.31,-56.36,-27.28,-28.23
0.16,-0.59,-0.33,-64.0,-42.04,-13.89
0.15,-0.4,-0.42,-58.26,-37.61,-0.77
0.15,-0.26,-0.51,-46.7,-32.28,11.46
0.11,-0.21,-0.54,-31.05,-25.36,19.42
0.1,-0.26,-0.59,-9.63,-16.19,29.67
0.06,-0.44,-0.6,-2.51,-4.95,31.62
-0.01,-0.66,-0.6,-0.01,5.92,33.6
-0.03,-0.83,-0.62,5.84,8.55,31.03
-0.01,-0.98,-0.62,14.93,11.96,25.69
0.03,-1.16,-0.6,14.59,-7.59,17.43
0.01,-1.27,-0.56,8.52,-19.35,10.05
-0.14,-1.25,-0.53,7.51,-19.41,-11.4
-0.34,-1.16,-0.43,-11.36,-2.01,-31.64
-0.32,-1.1,-0.38,-21.79,20.22,-37.39
-0.09,-1.03,-0.35,-31.54,6.31,-42.43
0.06,-0.89,-0.35,-46.06,-13.18,-40.88
0.11,-0.72,-0.39,-50.87,-28.44,-29.64
0.12,-0.58,-0.47,-44.11,-30.43,-17.61
0.1,-0.38,-0.53,-38.6,-19.09,-5.25
0.15,-0.3,-0.59,-26.36,-2.09,9.23
0.2,-0.28,-0.64,-12.08,7.11,18.02
0.19,-0.35,-0.64,-1.28,9.12,26.86
0.08,-0.54,-0.6,-3.37,16.99,32.93
0.02,-0.74,-0.6,-9.19,18.27,36.07
0.03,-0.87,-0.61,-8.94,6.33,34.31
0.02,-0.97,-0.63,0.48,-16.11,21.27
-0.05,-1.15,-0.65,14.62,-22.83,2.57
-0.21,-1.3,-0.59,7.48,-11.45,-11.79
-0.44,-1.33,-0.47,-18.27,15.67,-31.18
-0.46,-1.23,-0.46,-19.29,54.19,-43.46
-0.17,-1.02,-0.46,-19.02,55.55,-48.76
0.06,-0.88,-0.39,-34.32,31.04,-46.15
0.18,-0.78,-0.34,-46.25,6.56,-32.71
0.22,-0.62,-0.31,-55.02,-14.75,-21.31
0.22,-0.43,-0.36,-51.4,-15.47,-5.28
0.23,-0.29,-0.46,-41.91,-15.89,9.7
0.22,-0.24,-0.54,-23.42,-10.67,16.27
0.19,-0.3,-0.59,-5.2,-1.13,24.26
0.11,-0.47,-0.58,-1.14,5.88,24.92
0.03,-0.7,-0.59,3.11,13.89,26.72
0.01,-0.92,-0.59,12.06,11.32,24.59
0.02,-1.1,-0.57,18.0,-6.24,18.28
-0.02,-1.25,-0.56,18.99,-22.04,9.77
-0.15,-1.22,-0.54,20.4,-20.33,-8.95
-0.37,-1.13,-0.44,6.33,-8.74,-33.11
-0.43,-1.04,-0.35,-7.78,20.56,-43.34
-0.19,-0.99,-0.31,-23.11,19.21,-45.59
0.05,-0.89,-0.29,-46.65,1.72,-36.78
0.19,-0.73,-0.34,-53.25,-18.13,-18.9
0.25,-0.51,-0.44,-48.69,-35.55,1.14
0.25,-0.35,-0.51,-35.6,-54.37,11.24
0.2,-0.29,-0.58,-21.57,-52.15,19.97
0.17,-0.29,-0.64,-2.21,-36.79,26.8
0.09,-0.39,-0.65,3.68,-6.53,26.65
0.01,-0.58,-0.65,2.55,22.8,30.99
0.01,-0.8,-0.64,4.85,35.1,31.3
0.02,-0.97,-0.6,6.04,25.3,25.89
0.05,-1.2,-0.59,7.14,1.25,22.72
0.06,-1.32,-0.57,4.69,-29.99,16.37
-0.1,-1.25,-0.53,7.5,-39.04,-6.91
-0.35,-1.12,-0.44,-2.81,-22.27,-31.99
-0.47,-1.06,-0.33,-24.89,9.28,-44.46
-0.3,-0.99,-0.26,-46.82,26.61,-44.38
0.02,-0.84,-0.28,-58.77,24.52,-33.68
0.19,-0.65,-0.34,-63.98,-13.25,-20.89
0.22,-0.52,-0.45,-54.12,-33.46,-5.15
0.25,-0.4,-0.58,-34.32,-48.37,0.25
0.22,-0.35,-0.64,-24.21,-39.81,14.1
0.2,-0.35,-0.69,-4.02,-15.94,23.28
0.11,-0.41,-0.65,-0.35,5.92,24.62
-0.01,-0.6,-0.61,-9.06,31.32,27.65
-0.02,-0.77,-0.61,-15.25,37.31,27.5
0.01,-0.92,-0.63,-8.3,32.95,23.7
0.02,-1.07,-0.62,0.09,8.12,13.12
-0.02,-1.23,-0.58,2.69,-13.73,5.79
-0.08,-1.3,-0.54,5.57,-19.96,-4.34
-0.25,-1.23,-0.46,-5.73,-17.49,-25.01
-0.44,-1.11,-0.36,-17.24,6.61,-41.2
-0.35,-1.0,-0.32,-26.82,23.16,-52.5
-0.16,-0.89,-0.28,-42.2,13.6,-54.24
-0.01,-0.76,-0.28,-59.02,-14.28,-44.11
0.17,-0.6,-0.43,-52.14,-18.19,-18.79
0.39,-0.35,-0.57,-31.04,-23.46,10.99
0.38,-0.21,-0.57,-24.47,-32.31,17.69
0.29,-0.23,-0.64,-8.65,-30.75,27.1
0.15,-0.32,-0.61,-5.12,-20.63,33.14
-0.03,-0.5,-0.57,-1.85,2.64,31.21
-0.11,-0.73,-0.55,-0.54,14.18,26.88
-0.1,-0.92,-0.55,1.78,11.42,20.93
-0.04,-1.11,-0.57,2.27,-12.09,17.1
-0.02,-1.22,-0.58,4.54,-25.56,11.17
-0.15,-1.18,-0.52,4.43,-32.05,-14.37
-0.41,-1.11,-0.42,-11.42,-1.26,-28.57
-0.35,-1.06,-0.44,-11.66,26.57,-38.08
-0.17,-0.99,-0.4,-24.42,13.63,-51.55
-0.11,-0.92,-0.36,-43.06,-18.17,-52.42
0.02,-0.83,-0.46,-43.44,-22.06,-36.64
0.26,-0.61,-0.57,-25.65,-24.09,-13.41
0.27,-0.42,-0.51,-34.27,-35.22,-2.16
0.31,-0.34,-0.61,-16.96,-11.55,28.46
0.3,-0.3,-0.57,-12.72,-30.86,19.97
0.06,-0.38,-0.54,-11.0,-5.64,28.07
-0.01,-0.55,-0.58,-6.26,18.94,36.62
-0.01,-0.74,-0.53,-6.3,14.02,30.23
-0.05,-0.92,-0.57,2.69,0.63,24.48
-0.09,-1.08,-0.58,5.66,-11.47,13.4
-0.18,-1.18,-0.5,3.35,-29.38,-7.31
-0.41,-1.17,-0.41,-15.32,-6.95,-21.25
-0.36,-1.08,-0.45,-13.45,20.63,-29.47
-0.14,-0.95,-0.47,-20.75,33.69,-30.89
0.04,-0.86,-0.48,-20.19,18.55,-29.03
0.08,-0.79,-0.45,-32.63,-11.25,-26.53
0.12,-0.72,-0.49,-33.09,-18.44,-13.18
0.18,-0.63,-0.53,-31.57,-26.48,-8.5
0.14,-0.5,-0.54,-30.27,-22.73,0.98
0.11,-0.44,-0.58,-23.18,-9.65,13.71
0.09,-0.44,-0.59,-13.56,3.7,16.51
0.05,-0.51,-0.57,-10.86,15.8,24.47
0.05,-0.63,-0.58,-4.87,19.77,30.31
0.04,-0.74,-0.55,0.05,14.11,27.85
-0.02,-0.91,-0.5,0.08,-0.7,21.16
-0.06,-1.07,-0.51,-0.49,-13.12,10.4
-0.13,-1.14,-0.5,-5.58,-19.1,-3.94
-0.25,-1.1,-0.47,-8.44,-10.11,-18.68
-0.28,-1.02,-0.45,-10.77,11.83,-24.13
-0.16,-0.95,-0.42,-17.19,11.88,-28.81
-0.04,-0.87,-0.38,-28.49,4.16,-26.87
0.03,-0.77,-0.38,-37.19,-15.13,-20.07
0.11,-0.62,-0.43,-34.91,-20.91,-5.48
0.18,-0.48,-0.51,-30.4,-28.93,7.51
0.17,-0.39,-0.58,-24.75,-30.31,18.6
0.11,-0.39,-0.62,-8.64,-20.79,19.85
0.01,-0.46,-0.61,-4.93,-4.38,24.12
-0.03,-0.63,-0.63,-1.25,13.13,24.81
-0.05,-0.79,-0.64,0.45,20.61,23.46
-0.06,-0.94,-0.66,9.74,17.07,17.93
-0.08,-1.09,-0.63,14.66,10.06,4.01
-0.17,-1.24,-0.52,4.01,1.2,-10.2
-0.25,-1.27,-0.46,-7.96,1.88,-18.89
-0.26,-1.16,-0.43,-14.59,9.72,-29.98
-0.2,-1.0,-0.42,-15.59,9.8,-37.33
-0.14,-0.88,-0.38,-28.43,0.47,-40.13
-0.05,-0.8,-0.36,-40.21,-3.97,-29.6
0.09,-0.62,-0.37,-48.22,-7.58,-12.65
0.21,-0.41,-0.41,-49.03,-15.16,10.75
0.27,-0.25,-0.5,-36.88,-28.86,24.62
0.23,-0.22,-0.58,-15.18,-40.92,18.89
0.07,-0.34,-0.55,-4.95,-26.18,25.89
-0.04,-0.58,-0.58,3.43,-5.38,23.04
-0.1,-0.78,-0.58,6.64,8.04,20.48
-0.03,-0.98,-0.59,12.91,5.51,18.76
-0.03,-1.15,-0.57,9.72,-13.05,11.29
-0.08,-1.29,-0.54,3.57,-32.61,-1.04
-0.21,-1.26,-0.49,-5.15,-29.15,-14.95
-0.32,-1.14,-0.43,-19.9,-4.04,-25.69
-0.28,-1.02,-0.45,-20.39,10.22,-36.88
-0.21,-0.91,-0.44,-31.77,4.1,-44.55
-0.14,-0.83,-0.44,-39.92,-4.67,-39.24
0.03,-0.69,-0.52,-36.6,6.35,-19.37
0.22,-0.48,-0.55,-32.03,16.71,7.11
0.29,-0.3,-0.53,-26.35,7.9,20.63
0.19,-0.25,-0.55,-12.07,-13.36,16.92
0.03,-0.37,-0.5,-3.2,-14.09,21.88
-0.08,-0.56,-0.51,0.72,5.83,20.79
-0.11,-0.73,-0.51,-3.19,22.12,22.71
-0.07,-0.84,-0.52,0.47,30.0,27.12
0.0,-0.88,-0.54,6.65,19.24,24.7
0.0,-1.02,-0.52,9.56,-1.12,13.12
-0.08,-1.2,-0.49,4.34,-19.07,1.13
-0.21,-1.26,-0.44,-6.27,-17.61,-9.53
-0.3,-1.15,-0.41,-17.54,0.2,-21.76
-0.24,-1.0,-0.42,-17.26,9.16,-29.09
-0.14,-0.91,-0.4,-29.75,2.52,-35.8
-0.09,-0.88,-0.38,-39.27,-15.74,-38.46
-0.06,-0.81,-0.42,-44.71,-24.48,-31.62
0.1,-0.66,-0.52,-40.34,-10.68,-10.3
0.29,-0.46,-0.61,-26.25,5.88,19.01
0.29,-0.29,-0.63,-17.57,-9.39,20.98
0.09,-0.33,-0.57,-10.03,-9.36,17.74
-0.06,-0.51,-0.56,-3.88,11.55,26.08
-0.09,-0.68,-0.57,-8.6,28.02,24.88
-0.07,-0.77,-0.58,-4.64,38.61,28.84
-0.01,-0.82,-0.59,6.84,26.38,27.94
-0.01,-0.97,-0.57,15.9,8.75,13.85
-0.12,-1.16,-0.53,19.26,-6.25,-4.91
-0.36,-1.27,-0.4,-5.14,4.23,-15.66
-0.41,-1.17,-0.36,-16.74,45.36,-20.78
-0.19,-0.99,-0.39,-19.65,52.21,-26.8
-0.01,-0.85,-0.38,-29.98,29.14,-27.9
0.06,-0.81,-0.37,-41.65,-0.87,-23.07
0.09,-0.75,-0.39,-46.14,-24.81,-17.07
0.05,-0.64,-0.43,-48.89,-40.5,-15.51
-0.0,-0.51,-0.49,-40.67,-26.62,-5.16
0.02,-0.41,-0.53,-33.69,-7.88,5.62
0.06,-0.39,-0.56,-18.64,14.71,15.74
0.09,-0.44,-0.58,-9.14,22.94,23.11
0.09,-0.55,-0.61,-8.69,31.45,32.87
0.1,-0.66,-0.64,-6.8,33.16,41.56
0.1,-0.71,-0.65,2.23,23.7,46.11
0.09,-0.81,-0.67,24.06,20.24,39.96
-0.02,-1.01,-0.61,36.07,14.42,14.34
-0.27,-1.32,-0.46,17.47,26.43,-2.88
-0.43,-1.45,-0.32,-8.26,32.77,-11.52
-0.31,-1.26,-0.35,-8.57,47.26,-23.44
-0.09,-1.02,-0.35,-11.28,37.26,-34.24
0.04,-0.91,-0.33,-23.24,9.0,-37.74
0.11,-0.9,-0.32,-37.16,-16.0,-30.84
0.17,-0.8,-0.36,-49.29,-27.46,-12.35
0.17,-0.61,-0.38,-54.91,-37.58,-0.69
0.07,-0.38,-0.42,-51.79,-32.11,7.77
0.04,-0.23,-0.53,-38.83,-23.77,15.65
0.03,-0.21,-0.6,-18.25,-11.29,13.67
-0.02,-0.35,-0.6,-7.34,5.53,19.53
-0.02,-0.58,-0.64,-2.78,28.2,25.32
0.09,-0.79,-0.68,1.45,37.8,33.62
0.09,-0.91,-0.68,12.17,31.82,35.29
0.06,-1.06,-0.69,31.11,22.86,23.37
-0.02,-1.24,-0.62,29.12,13.7,7.97
-0.18,-1.4,-0.46,10.29,10.42,-1.73
-0.27,-1.35,-0.4,-1.42,14.99,-20.47
-0.27,-1.17,-0.34,-15.93,19.33,-37.23
-0.18,-1.03,-0.34,-29.71,22.36,-43.82
-0.04,-0.89,-0.34,-45.29,17.72,-42.0
0.05,-0.73,-0.34,-56.49,4.86,-32.29
0.08,-0.56,-0.38,-62.18,-3.57,-15.32
0.11,-0.36,-0.45,-56.19,-14.73,-2.55
0.15,-0.23,-0.53,-43.22,-13.86,11.82
0.19,-0.18,-0.62,-16.77,-9.18,18.58
0.12,-0.27,-0.6,-2.92,-1.94,22.66
0.0,-0.51,-0.6,5.19,20.2,27.89
-0.02,-0.71,-0.61,9.37,33.78,31.58
-0.0,-0.89,-0.59,15.13,32.1,30.56
0.03,-1.05,-0.6,26.78,21.58,23.88
0.04,-1.21,-0.58,26.97,0.47,13.55
-0.07,-1.3,-0.51,20.41,-7.25,-0.77
-0.23,-1.25,-0.43,13.7,2.04,-18.36
-0.32,-1.16,-0.31,-7.41,19.49,-35.9
-0.2,-1.09,-0.28,-19.38,26.55,-38.25
0.06,-0.95,-0.29,-36.46,11.1,-34.25
0.14,-0.8,-0.28,-53.52,-10.35,-26.0
0.15,-0.61,-0.34,-59.23,-28.69,-11.82
0.13,-0.43,-0.43,-54.16,-37.93,-5.74
0.14,-0.3,-0.56,-39.87,-27.41,6.56
0.15,-0.26,-0.64,-21.5,-17.82,11.38
0.13,-0.32,-0.68,-3.39,1.63,20.34
0.08,-0.49,-0.7,5.11,21.89,26.25
0.05,-0.7,-0.7,10.71,39.93,35.47
0.05,-0.84,-0.64,15.44,40.54,36.5
0.08,-1.01,-0.6,27.96,24.98,29.33
0.07,-1.23,-0.55,31.01,-2.21,12.1
-0.09,-1.4,-0.47,19.5,-12.25,-3.36
-0.34,-1.36,-0.31,-5.92,-0.97,-25.78
-0.41,-1.2,-0.28,-17.25,34.41,-37.4
-0.15,-1.0,-0.33,-21.03,41.55,-36.74
0.12,-0.85,-0.33,-36.69,25.22,-30.34
0.18,-0.72,-0.28,-55.4,-10.92,-17.0
0.18,-0.58,-0.31,-63.51,-32.83,-2.42
0.18,-0.4,-0.38,-60.84,-50.17,3.93
0.14,-0.29,-0.5,-45.94,-47.5,9.33
0.09,-0.26,-0.61,-17.63,-29.0,13.28
0.01,-0.37,-0.63,-5.18,-2.85,15.46
-0.03,-0.6,-0.66,-1.73,24.54,20.84
0.01,-0.77,-0.69,4.76,40.74,28.74
0.09,-0.89,-0.69,15.79,44.16,32.42
0.12,-1.04,-0.63,24.61,34.67,26.98
0.13,-1.25,-0.58,25.67,6.73,15.0
0.04,-1.39,-0.51,24.39,-7.2,-0.83
-0.28,-1.37,-0.34,-1.03,-12.31,-25.26
-0.49,-1.28,-0.26,-12.8,29.12,-39.59
-0.26,-1.08,-0.3,-18.48,38.24,-45.91
0.04,-0.86,-0.3,-36.15,32.26,-37.71
0.18,-0.69,-0.27,-56.35,2.84,-21.17
0.21,-0.49,-0.31,-64.0,-18.19,1.56
0.27,-0.31,-0.42,-58.33,-31.81,8.93
0.27,-0.19,-0.56,-41.74,-41.96,15.09
0.2,-0.2,-0.65,-17.15,-35.06,23.26
0.08,-0.34,-0.64,-3.98,-17.58,23.03
-0.05,-0.58,-0.62,4.15,9.6,23.3
-0.08,-0.82,-0.6,12.91,32.12,26.73
-0.03,-1.01,-0.55,10.15,32.72,28.06
0.07,-1.16,-0.56,17.11,19.62,26.75
0.1,-1.21,-0.56,25.14,-6.28,12.54
-0.06,-1.24,-0.47,20.74,-17.21,-11.85
-0.31,-1.27,-0.32,-9.13,-3.45,-27.91
-0.34,-1.23,-0.28,-27.0,19.89,-39.15
-0.08,-1.05,-0.32,-37.2,15.86,-43.32
0.1,-0.86,-0.38,-44.92,7.42,-33.5
0.15,-0.67,-0.41,-52.11,-8.58,-18.35
0.14,-0.49,-0.45,-49.59,-11.21,-4.03
0.17,-0.33,-0.51,-40.77,-13.57,2.38
0.18,-0.27,-0.55,-32.31,-16.83,8.72
0.14,-0.33,-0.58,-14.06,-10.58,14.43
0.07,-0.49,-0.59,-9.18,4.13,17.05
0.02,-0.7,-0.63,-6.03,28.66,23.22
0.04,-0.8,-0.65,0.12,39.06,30.66
0.06,-0.88,-0.61,8.08,42.2,32.42
0.1,-0.99,-0.6,21.87,35.11,34.16
0.13,-1.14,-0.54,23.65,1.51,22.91
0.03,-1.26,-0.5,31.22,-10.97,1.37
-0.3,-1.29,-0.29,4.92,-17.07,-25.14
-0.5,-1.29,-0.18,-12.17,15.7,-37.73
-0.3,-1.19,-0.21,-24.26,26.67,-45.75
0.02,-0.95,-0.27,-35.28,16.34,-42.98
0.17,-0.77,-0.29,-53.16,-7.53,-31.46
0.21,-0.58,-0.36,-57.52,-14.02,-6.2
0.26,-0.38,-0.47,-46.93,-22.01,5.46
0.24,-0.2,-0.54,-41.09,-33.72,10.19
0.2,-0.17,-0.6,-27.91,-35.52,20.26
0.12,-0.26,-0.61,-12.81,-25.1,23.68
0.01,-0.46,-0.58,-11.44,-4.2,19.65
-0.06,-0.73,-0.63,-8.53,24.67,25.69
-0.02,-0.86,-0.65,-2.14,37.97,32.2
0.06,-0.95,-0.65,12.72,40.6,31.11
0.13,-1.08,-0.64,27.66,22.98,29.68
0.16,-1.23,-0.58,27.82,-4.51,24.07
0.08,-1.34,-0.53,31.16,-16.01,7.98
-0.24,-1.3,-0.32,3.19,-14.42,-24.97
-0.53,-1.25,-0.22,-16.63,21.79,-39.34
-0.31,-1.15,-0.26,-21.29,40.62,-47.7
0.03,-0.99,-0.29,-34.29,23.74,-47.0
0.2,-0.83,-0.3,-51.09,-9.73,-34.39
0.2,-0.68,-0.33,-62.02,-24.4,-9.22
0.22,-0.44,-0.44,-51.7,-23.62,7.6
0.2,-0.23,-0.49,-42.67,-32.19,7.68
0.12,-0.16,-0.52,-30.58,-34.44,16.44
0.1,-0.22,-0.57,-13.56,-27.75,25.78
0.03,-0.42,-0.56,-8.45,-4.44,24.9
-0.03,-0.64,-0.63,-7.04,21.37,27.21
-0.02,-0.79,-0.68,-1.1,37.67,32.96
0.05,-0.9,-0.71,19.84,52.75,36.54
0.17,-1.09,-0.67,32.99,31.92,32.94
0.17,-1.31,-0.58,26.04,-2.92,27.75
0.04,-1.4,-0.52,29.7,-6.71,10.5
-0.28,-1.31,-0.29,1.02,-9.96,-25.42
-0.53,-1.23,-0.23,-17.09,39.65,-39.53
-0.3,-1.09,-0.25,-26.73,47.79,-48.96
0.05,-0.94,-0.26,-38.77,34.86,-45.36
0.23,-0.79,-0.28,-51.31,-2.89,-32.34
0.24,-0.64,-0.32,-60.81,-34.84,-17.08
0.24,-0.45,-0.4,-59.25,-35.51,4.74
0.29,-0.28,-0.49,-50.87,-42.49,14.67
0.19,-0.21,-0.56,-34.98,-43.64,14.16
0.12,-0.28,-0.61,-17.53,-28.37,22.15
-0.0,-0.5,-0.62,-15.59,-2.27,17.13
-0.1,-0.74,-0.64,-14.53,29.96,23.57
-0.06,-0.87,-0.67,-5.86,49.62,33.34
0.06,-0.91,-0.68,13.31,50.49,38.21
0.12,-1.01,-0.62,26.37,25.17,32.74
0.12,-1.19,-0.55,30.23,-12.64,19.68
-0.05,-1.3,-0.47,28.18,-18.09,-0.78
-0.39,-1.25,-0.22,-6.57,-13.65,-29.95
-0.55,-1.16,-0.19,-24.95,44.46,-39.33
-0.2,-1.01,-0.25,-29.77,45.66,-42.6
0.15,-0.87,-0.27,-41.95,23.2,-37.64
0.25,-0.79,-0.34,-50.01,-17.96,-27.4
0.23,-0.67,-0.39,-49.43,-46.13,-15.76
0.16,-0.56,-0.43,-50.71,-52.85,-8.31
0.14,-0.44,-0.49,-43.72,-41.43,2.91
0.14,-0.35,-0.53,-38.61,-30.54,9.39
0.11,-0.35,-0.58,-23.68,-14.41,11.93
0.07,-0.45,-0.63,-12.43,2.74,20.12
0.05,-0.62,-0.67,-3.01,25.31,27.57
0.06,-0.8,-0.68,5.37,36.42,31.71
0.07,-0.89,-0.65,13.33,39.96,32.84
0.09,-0.98,-0.61,20.51,28.32,33.71
0.11,-1.09,-0.54,24.4,-3.4,23.32
0.02,-1.19,-0.47,24.99,-16.04,2.7
-0.26,-1.24,-0.29,-4.25,-17.25,-22.61
-0.45,-1.2,-0.2,-29.17,16.26,-37.47
-0.26,-1.07,-0.26,-30.14,29.93,-38.91
0.04,-0.89,-0.33,-34.4,14.37,-34.9
0.19,-0.75,-0.36,-42.99,-14.0,-20.04
0.21,-0.64,-0.4,-46.07,-42.05,-6.31
0.18,-0.51,-0.44,-43.59,-53.76,-0.5
0.12,-0.41,-0.5,-38.22,-47.69,2.21
0.07,-0.4,-0.59,-27.99,-22.4,5.05
0.03,-0.46,-0.65,-11.6,8.46,11.76
0.02,-0.58,-0.69,-2.41,33.44,19.0
0.05,-0.74,-0.72,11.27,46.43,27.41
0.12,-0.84,-0.71,20.08,45.43,31.88
0.14,-0.96,-0.63,30.54,25.96,24.92
0.06,-1.12,-0.56,32.96,13.3,8.2
-0.12,-1.28,-0.42,11.37,13.0,-8.55
-0.32,-1.29,-0.24,-20.97,13.62,-28.33
-0.29,-1.17,-0.27,-27.16,32.68,-31.01
-0.02,-1.0,-0.31,-28.64,18.3,-32.19
0.15,-0.87,-0.3,-40.83,-7.01,-28.55
0.19,-0.78,-0.33,-45.39,-33.85,-18.43
0.14,-0.63,-0.37,-47.51,-46.33,-11.59
0.09,-0.49,-0.43,-43.25,-44.23,-6.17
0.05,-0.37,-0.5,-35.26,-29.05,-0.36
0.09,-0.33,-0.57,-24.07,-4.72,7.61
0.1,-0.36,-0.64,-9.89,16.09,14.81
0.13,-0.5,-0.67,-0.73,32.8,27.38
0.16,-0.67,-0.68,4.67,34.22,33.73
0.16,-0.84,-0.67,9.8,31.78,39.23
0.15,-0.96,-0.65,19.49,16.27,34.26
0.05,-1.1,-0.61,33.4,10.29,19.07
-0.12,-1.25,-0.47,20.69,21.35,1.23
-0.29,-1.34,-0.34,0.58,23.44,-16.79
-0.32,-1.28,-0.32,-7.91,34.77,-29.47
-0.22,-1.14,-0.31,-13.34,37.65,-39.14
-0.06,-0.99,-0.31,-18.77,27.13,-43.77
0.09,-0.9,-0.29,-30.46,8.07,-39.17
0.21,-0.79,-0.26,-46.64,-17.42,-29.13
0.21,-0.61,-0.25,-61.27,-41.17,-16.79
0.2,-0.47,-0.33,-55.92,-46.99,-2.61
0.2,-0.33,-0.47,-46.25,-41.9,10.78
0.17,-0.27,-0.6,-27.9,-21.1,20.31
0.13,-0.3,-0.66,-6.17,-1.95,19.32
0.08,-0.47,-0.67,3.33,23.72,26.27
0.05,-0.75,-0.66,3.39,37.04,27.68
0.06,-0.91,-0.65,3.7,46.44,34.36
0.13,-0.99,-0.64,16.48,33.04,32.75
0.09,-1.1,-0.62,33.91,13.68,15.18
-0.1,-1.28,-0.48,21.79,15.48,2.54
-0.25,-1.38,-0.31,2.62,15.21,-13.25
-0.29,-1.28,-0.25,-13.82,24.29,-28.68
-0.2,-1.09,-0.22,-22.55,24.36,-39.22
0.02,-0.93,-0.25,-29.03,11.96,-42.19
0.18,-0.84,-0.26,-41.22,-11.75,-40.64
0.25,-0.73,-0.31,-49.22,-32.33,-28.94
0.24,-0.6,-0.34,-59.08,-54.23,-15.27
0.22,-0.45,-0.41,-51.99,-54.88,-0.6
0.21,-0.34,-0.51,-44.61,-43.79,16.11
0.22,-0.28,-0.62,-23.15,-20.02,24.18
0.16,-0.3,-0.68,-0.97,-3.04,23.63
0.08,-0.47,-0.69,10.3,17.31,29.37
-0.0,-0.74,-0.68,6.8,31.18,32.44
0.02,-0.92,-0.66,8.75,38.11,36.34
0.07,-1.01,-0.66,27.52,27.04,27.38
-0.0,-1.14,-0.59,34.06,25.29,11.35
-0.15,-1.33,-0.42,20.35,15.49,-3.68
-0.28,-1.39,-0.31,-0.82,20.8,-18.83
-0.29,-1.27,-0.24,-18.72,27.97,-34.56
-0.13,-1.08,-0.26,-21.87,24.79,-39.91
0.1,-0.92,-0.27,-35.58,9.55,-40.14
0.24,-0.83,-0.27,-47.78,-18.49,-34.26
0.25,-0.71,-0.31,-60.03,-38.95,-22.4
0.22,-0.56,-0.37,-59.71,-49.19,-7.32
0.17,-0.39,-0.43,-54.24,-45.03,2.11
0.18,-0.28,-0.54,-39.71,-27.69,15.49
0.19,-0.26,-0.62,-17.33,-10.24,22.89
0.17,-0.37,-0.66,-0.33,9.58,29.12
0.09,-0.57,-0.66,3.5,21.78,29.9
0.04,-0.84,-0.66,4.62,31.74,35.31
0.08,-0.97,-0.64,16.21,31.95,35.83
0.11,-1.11,-0.56,25.29,15.64,25.03
0.04,-1.29,-0.47,22.22,-2.78,9.9
-0.14,-1.4,-0.35,7.6,-8.91,-9.66
-0.32,-1.34,-0.25,-15.49,1.6,-26.97
-0.27,-1.17,-0.26,-18.76,16.35,-38.58
-0.04,-1.01,-0.28,-29.08,9.04,-45.92
0.13,-0.9,-0.3,-40.36,-5.56,-44.22
0.2,-0.79,-0.34,-50.31,-26.54,-36.27
0.18,-0.63,-0.39,-56.61,-39.9,-22.98
0.19,-0.46,-0.46,-51.78,-38.38,-4.01
0.25,-0.29,-0.58,-37.17,-19.28,11.66
0.29,-0.2,-0.64,-21.94,-11.14,21.98
0.22,-0.24,-0.64,-1.82,-0.05,29.08
0.11,-0.41,-0.63,1.4,11.08,34.55
0.03,-0.68,-0.6,-4.46,27.27,38.91
0.05,-0.85,-0.6,-4.77,27.72,42.64
0.08,-0.94,-0.62,12.0,14.72,35.73
0.03,-1.11,-0.62,32.59,13.23,18.53
-0.1,-1.31,-0.44,13.58,-0.1,8.72
-0.26,-1.43,-0.34,6.68,8.62,-7.34
-0.33,-1.31,-0.29,-8.87,12.88,-26.94
-0.25,-1.14,-0.24,-20.07,18.61,-39.0
-0.02,-1.01,-0.24,-32.3,8.91,-42.58
0.19,-0.92,-0.28,-42.37,-8.71,-40.86
0.24,-0.77,-0.31,-55.07,-35.44,-35.57
0.2,-0.62,-0.38,-60.87,-44.16,-18.93
0.21,-0.46,-0.47,-53.34,-44.42,-2.06
0.27,-0.3,-0.6,-36.87,-24.6,13.8
0.29,-0.23,-0.66,-23.99,-16.44,18.23
0.24,-0.29,-0.7,-0.51,4.83,29.33
0.13,-0.47,-0.68,2.01,17.55,31.92
0.01,-0.75,-0.63,3.21,34.79,35.03
0.01,-0.93,-0.59,9.07,33.39,35.37
0.03,-1.06,-0.56,22.21,14.01,23.89
-0.2,-1.33,-0.32,7.72,-8.34,-9.39
-0.31,-1.34,-0.24,-6.36,-1.62,-24.28
-0.24,-1.22,-0.22,-20.03,5.66,-35.28
-0.05,-1.07,-0.24,-30.71,-1.69,-42.74
0.13,-0.94,-0.3,-39.41,-22.04,-42.04
0.15,-0.83,-0.33,-51.08,-44.93,-40.51
0.14,-0.69,-0.41,-50.91,-45.55,-27.94
0.18,-0.53,-0.49,-45.11,-39.62,-12.09
0.18,-0.36,-0.5,-41.82,-36.6,-2.86
0.15,-0.29,-0.51,-42.06,-29.61,9.34
0.21,-0.29,-0.58,-25.28,-17.13,25.96
0.03,-0.74,-0.58,-5.51,-16.94,42.41
0.02,-0.93,-0.6,2.57,-24.41,40.64
0.01,-1.07,-0.59,11.32,-35.67,26.5
-0.1,-1.17,-0.58,14.54,-26.65,14.62
-0.28,-1.24,-0.45,-4.09,-19.39,-4.87
-0.41,-1.23,-0.41,-12.44,5.67,-21.55
-0.3,-1.13,-0.38,-26.53,18.88,-30.38
-0.09,-1.04,-0.37,-33.33,11.02,-35.11
0.09,-0.95,-0.36,-39.31,-12.25,-35.29
0.12,-0.85,-0.38,-43.99,-31.48,-29.74
0.13,-0.71,-0.41,-43.25,-46.05,-21.73
0.11,-0.57,-0.44,-42.49,-44.16,-10.09
0.12,-0.43,-0.49,-38.91,-33.56,-0.46
0.21,-0.35,-0.58,-35.16,-15.8,17.67
0.28,-0.33,-0.65,-21.24,-6.3,22.28
0.21,-0.39,-0.65,-16.29,-3.94,28.44
0.07,-0.59,-0.64,-14.44,4.76,33.19
-0.01,-0.85,-0.64,-7.19,5.49,26.58
-0.03,-1.17,-0.59,0.25,-23.35,13.21
-0.11,-1.2,-0.55,7.72,-20.54,-4.44
-0.33,-1.18,-0.44,-6.11,-12.97,-24.14
-0.47,-1.15,-0.38,-21.61,13.89,-37.82
-0.36,-1.08,-0.39,-27.52,21.6,-46.93
-0.16,-0.95,-0.38,-34.61,10.53,-50.68
0.1,-0.67,-0.42,-45.44,-16.84,-35.69
0.16,-0.51,-0.47,-45.29,-16.62,-15.27
0.24,-0.37,-0.57,-33.62,-7.45,5.43
0.31,-0.27,-0.63,-26.73,-8.09,18.1
0.28,-0.3,-0.67,-10.91,-1.41,28.36
0.23,-0.66,-0.51,-39.45,-21.32,-16.93
0.24,-0.51,-0.6,-26.79,-29.68,-8.75
0.19,-0.4,-0.65,-12.98,-23.5,-1.73
-0.41,-1.02,-0.36,-20.59,32.5,-47.92
-0.14,-0.93,-0.36,-32.8,39.2,-45.36
0.08,-0.81,-0.38,-40.4,17.93,-35.93
0.19,-0.67,-0.43,-45.95,-4.68,-20.12
0.27,-0.55,-0.53,-35.97,-15.22,-3.17
0.32,-0.43,-0.58,-31.15,-19.61,4.53
-0.3,-1.0,-0.27,-19.28,35.13,-54.26
-0.09,-0.91,-0.25,-38.7,30.7,-49.15
0.15,-0.79,-0.31,-46.3,17.87,-27.16
0.35,-0.64,-0.42,-45.35,-8.05,-4.84
0.44,-0.51,-0.51,-37.06,-31.16,9.95
-0.08,-0.78,-0.52,0.45,42.79,29.83
-0.03,-0.92,-0.47,1.74,37.72,24.84
0.01,-1.04,-0.46,2.05,11.4,19.58
-0.0,-1.08,-0.44,3.41,-14.46,7.89
-0.08,-1.1,-0.41,4.37,-27.06,-10.7
-0.2,-1.09,-0.4,3.03,-26.91,-29.65
-0.24,-1.05,-0.39,-10.54,-14.18,-42.87
-0.17,-1.02,-0.4,-20.71,-10.42,-53.1
0.06,-0.83,-0.54,-33.44,-1.01,-27.65
0.35,-0.63,-0.66,-16.06,8.66,-3.08
0.31,-0.42,-0.6,-19.65,-1.28,22.86
0.23,-0.46,-0.59,-19.09,-5.06,30.76
0.06,-0.53,-0.51,-19.23,12.82,33.26
-0.03,-0.66,-0.49,-14.46,24.63,31.18
-0.04,-0.81,-0.48,-8.48,23.79,27.95
-0.01,-0.99,-0.48,-3.06,4.15,22.99
-0.01,-1.08,-0.47,-2.59,-15.12,14.42
-0.08,-1.1,-0.44,0.34,-22.29,-2.1
-0.24,-1.04,-0.4,-2.97,-14.26,-19.85
-0.3,-1.0,-0.36,-15.31,10.13,-33.83
-0.15,-0.99,-0.36,-20.59,10.96,-41.73
-0.01,-0.93,-0.37,-31.4,-8.01,-44.98
0.17,-0.74,-0.51,-37.13,-21.33,-17.07
0.31,-0.57,-0.61,-26.81,-16.8,1.65
0.33,-0.43,-0.63,-22.25,-10.62,14.41
0.24,-0.4,-0.64,-14.28,-7.03,19.07
0.06,-0.48,-0.61,-14.7,13.93,25.88
0.01,-0.62,-0.61,-16.57,37.17,29.7
0.01,-0.73,-0.62,-17.95,44.61,31.11
0.02,-0.78,-0.61,-9.89,42.55,30.03
0.04,-0.9,-0.61,9.49,27.97,24.22
-0.0,-1.09,-0.53,13.56,9.69,7.65
-0.12,-1.26,-0.42,4.4,0.71,-3.01
-0.24,-1.24,-0.32,-10.26,3.8,-18.45
-0.27,-1.1,-0.29,-18.14,21.15,-32.33
-0.14,-0.96,-0.31,-21.57,25.48,-40.65
0.0,-0.87,-0.29,-36.2,11.26,-42.62
0.06,-0.8,-0.27,-51.74,-16.61,-36.1
0.13,-0.69,-0.37,-60.09,-19.64,-18.29
0.35,-0.51,-0.53,-44.2,-13.91,8.38
0.48,-0.33,-0.63,-27.74,-17.78,20.88
0.41,-0.29,-0.68,-9.31,-16.02,26.81
0.18,-0.41,-0.63,-7.17,1.12,33.15
0.01,-0.63,-0.62,-12.97,32.25,35.96
-0.05,-0.74,-0.61,-21.47,47.05,38.16
0.01,-0.74,-0.58,-10.01,47.61,39.94
0.08,-0.79,-0.58,13.51,26.22,30.98
0.03,-1.02,-0.59,34.84,16.04,16.95
-0.13,-1.26,-0.41,12.3,-6.78,-0.07
-0.32,-1.38,-0.3,-2.84,9.06,-8.42
-0.27,-1.22,-0.32,-7.55,16.67,-26.47
-0.14,-0.99,-0.34,-9.84,27.02,-37.19
0.0,-0.88,-0.35,-17.44,16.65,-37.99
0.11,-0.84,-0.34,-32.34,-9.91,-32.12
0.17,-0.77,-0.34,-49.48,-23.47,-17.47
0.27,-0.62,-0.41,-53.36,-35.1,-1.97
0.28,-0.46,-0.49,-51.48,-40.86,9.26
0.28,-0.34,-0.61,-37.56,-28.12,23.17
0.23,-0.35,-0.71,-12.67,-15.89,26.33
0.05,-0.48,-0.69,-8.57,11.63,27.15
-0.04,-0.66,-0.71,-7.4,43.47,33.46
-0.0,-0.77,-0.69,-5.02,57.63,35.7
0.05,-0.83,-0.64,3.85,52.88,29.45
0.05,-0.97,-0.64,17.23,39.25,17.51
-0.03,-1.18,-0.58,11.33,25.41,4.01
-0.14,-1.3,-0.46,-2.72,23.31,-6.18
-0.18,-1.26,-0.43,-6.96,33.4,-21.56
-0.17,-1.11,-0.39,-11.68,41.82,-33.7
-0.08,-0.99,-0.38,-17.15,44.06,-42.32
0.04,-0.92,-0.35,-31.17,32.96,-44.5
0.11,-0.83,-0.31,-52.11,17.06,-35.41
0.17,-0.7,-0.32,-64.0,0.36,-20.9
0.25,-0.5,-0.37,-64.0,-11.78,-4.03
0.33,-0.34,-0.5,-56.24,-17.86,10.47
0.33,-0.24,-0.59,-37.05,-18.03,20.71
0.26,-0.29,-0.65,-23.19,-6.76,27.99
0.11,-0.46,-0.62,-20.08,11.03,29.29
0.04,-0.63,-0.66,-17.21,38.24,37.31
0.07,-0.71,-0.68,-3.5,49.39,41.39
0.08,-0.79,-0.66,21.16,35.47,33.13
0.03,-0.96,-0.62,38.55,28.34,23.04
-0.03,-1.17,-0.48,37.36,20.05,14.54
-0.16,-1.25,-0.35,22.78,17.2,-5.55
-0.32,-1.19,-0.18,-1.4,20.0,-30.52
-0.25,-1.1,-0.16,-11.0,30.12,-37.83
0.01,-1.0,-0.2,-21.26,13.64,-42.62
0.21,-0.92,-0.25,-32.01,-15.67,-39.12
0.31,-0.82,-0.32,-41.42,-47.36,-28.57
0.3,-0.69,-0.37,-51.61,-64.0,-13.97
0.26,-0.53,-0.42,-60.81,-64.0,0.91
0.24,-0.39,-0.5,-60.46,-61.23,14.56
0.24,-0.25,-0.64,-39.58,-40.22,21.44
0.22,-0.21,-0.75,-12.77,-11.27,21.94
0.14,-0.33,-0.77,-1.96,13.32,23.38
0.05,-0.63,-0.78,-1.32,29.99,26.74
0.1,-0.84,-0.79,8.83,42.04,38.1
0.21,-0.98,-0.77,27.8,28.39,37.9
0.19,-1.11,-0.68,37.64,19.83,29.08
0.02,-1.25,-0.49,23.1,5.84,11.2
-0.2,-1.33,-0.33,4.27,4.17,-12.89
-0.34,-1.29,-0.27,-18.08,11.1,-31.95
-0.25,-1.16,-0.3,-21.67,23.11,-39.74
0.0,-0.99,-0.35,-25.84,15.08,-43.96
0.18,-0.89,-0.38,-32.05,-1.94,-39.63
0.23,-0.77,-0.39,-41.81,-21.21,-31.68
0.17,-0.62,-0.43,-52.91,-29.47,-17.69
0.16,-0.44,-0.49,-50.16,-24.38,-5.64
0.16,-0.26,-0.52,-48.85,-16.54,5.54
0.23,-0.17,-0.64,-32.27,4.0,23.38
0.26,-0.18,-0.69,-6.91,7.31,29.78
0.15,-0.35,-0.67,-3.41,26.34,33.12
0.07,-0.63,-0.65,-6.46,41.61,38.22
0.05,-0.8,-0.62,-8.46,39.83,40.71
0.11,-0.94,-0.65,15.67,25.39,39.25
0.19,-1.11,-0.67,36.81,11.43,29.93
0.03,-1.31,-0.52,23.45,-1.22,10.71
-0.2,-1.41,-0.33,-1.95,7.78,-7.05
-0.25,-1.33,-0.28,-15.07,28.47,-24.21
-0.16,-1.18,-0.29,-21.36,32.39,-36.34
0.04,-1.03,-0.31,-26.89,14.58,-41.61
0.21,-0.91,-0.35,-35.21,-8.13,-34.04
0.31,-0.82,-0.39,-44.63,-35.58,-25.81
0.27,-0.63,-0.42,-51.67,-48.79,-15.97
0.21,-0.45,-0.48,-50.85,-44.31,-6.66
0.21,-0.29,-0.57,-39.45,-28.35,2.36
0.17,-0.22,-0.62,-31.0,-12.93,8.78
0.15,-0.28,-0.69,-10.04,13.81,21.04
0.13,-0.44,-0.68,-5.35,28.03,23.62
0.1,-0.66,-0.65,-8.34,34.06,30.8
0.11,-0.79,-0.63,-7.92,26.74,40.52
0.17,-0.89,-0.63,15.61,8.88,39.6
0.11,-1.02,-0.6,33.2,2.75,20.64
-0.09,-1.24,-0.4,5.4,-6.68,3.75
-0.25,-1.37,-0.29,-17.71,9.19,-8.5
-0.24,-1.27,-0.31,-27.85,19.45,-22.32
-0.12,-1.09,-0.36,-23.87,21.96,-29.89
0.06,-0.98,-0.38,-20.67,8.18,-35.1
0.18,-0.95,-0.4,-25.71,-13.58,-40.16
0.2,-0.87,-0.43,-31.01,-33.52,-40.15
0.16,-0.73,-0.45,-38.42,-39.49,-31.16
0.15,-0.56,-0.44,-46.98,-35.84,-19.55
0.2,-0.4,-0.46,-47.89,-27.2,-6.24
0.28,-0.25,-0.52,-43.42,-21.98,9.4
0.31,-0.2,-0.61,-30.42,-18.15,20.06
0.27,-0.26,-0.68,-9.47,-13.15,29.78
0.14,-0.46,-0.69,-2.44,-5.24,29.52
0.02,-0.69,-0.71,1.77,6.87,31.61
0.02,-0.86,-0.74,14.88,13.48,32.31
0.03,-1.01,-0.73,35.73,13.13,23.48
-0.03,-1.2,-0.61,32.43,11.86,9.43
-0.16,-1.35,-0.47,14.34,17.06,-3.72
-0.23,-1.3,-0.38,-8.19,29.02,-19.79
-0.16,-1.15,-0.37,-13.51,38.47,-26.59
0.05,-0.99,-0.4,-13.81,22.42,-33.15
0.16,-0.91,-0.39,-22.72,-0.08,-34.32
0.2,-0.83,-0.4,-32.6,-27.05,-29.43
0.17,-0.69,-0.41,-41.04,-37.67,-21.53
0.15,-0.51,-0.45,-41.13,-34.74,-12.32
0.18,-0.35,-0.52,-35.18,-19.02,-0.96
0.21,-0.25,-0.56,-28.77,-9.79,9.52
0.21,-0.27,-0.6,-14.32,3.15,22.96
0.23,-0.38,-0.66,-0.81,17.25,30.13
0.19,-0.58,-0.64,-5.85,23.01,32.83
0.13,-0.78,-0.62,-13.2,22.87,39.0
0.13,-0.87,-0.62,-4.16,16.98,43.93
0.15,-0.98,-0.66,26.24,5.56,33.23
0.06,-1.17,-0.61,32.75,-1.34,14.34
-0.15,-1.37,-0.43,7.92,5.0,1.6
-0.3,-1.38,-0.32,-5.67,20.76,-21.06
-0.29,-1.21,-0.33,-9.44,38.89,-35.34
-0.12,-1.05,-0.32,-12.93,41.01,-44.76
0.11,-0.96,-0.32,-22.18,21.73,-45.44
0.24,-0.88,-0.32,-33.19,-6.48,-38.69
0.3,-0.74,-0.35,-43.99,-34.3,-26.54
0.28,-0.56,-0.39,-47.95,-45.95,-12.86
0.26,-0.4,-0.44,-46.65,-51.48,-3.47
0.22,-0.25,-0.54,-38.57,-38.79,9.45
0.23,-0.2,-0.61,-23.7,-21.65,20.78
0.17,-0.25,-0.64,-7.55,-6.57,24.38
0.07,-0.43,-0.63,-5.12,17.18,28.34
0.01,-0.68,-0.61,-12.64,18.37,27.78
0.05,-0.85,-0.66,-1.86,28.56,36.86
0.17,-0.98,-0.71,23.54,13.98,30.26
0.11,-1.16,-0.65,32.27,6.34,16.35
-0.03,-1.36,-0.51,17.04,9.0,11.58
-0.17,-1.38,-0.41,2.38,11.91,-9.02
-0.27,-1.25,-0.36,-8.43,28.61,-26.12
-0.2,-1.08,-0.34,-14.0,37.31,-39.39
0.02,-0.99,-0.36,-17.75,32.96,-42.57
0.21,-0.91,-0.35,-28.65,6.43,-39.12
0.26,-0.81,-0.33,-41.93,-17.09,-33.33
0.23,-0.65,-0.35,-54.8,-36.51,-20.82
0.24,-0.47,-0.44,-50.51,-33.06,-7.45
0.24,-0.29,-0.49,-46.48,-30.63,2.44
0.27,-0.21,-0.59,-31.79,-9.86,20.4
0.27,-0.23,-0.65,-10.92,-3.93,28.14
0.17,-0.38,-0.62,-7.9,9.27,31.1
0.06,-0.61,-0.6,-12.4,14.62,32.3
0.04,-0.81,-0.61,-13.87,20.6,36.3
0.09,-0.88,-0.64,3.01,19.72,36.98
0.11,-1.01,-0.65,23.21,6.24,21.84
0.05,-1.2,-0.6,25.88,7.6,15.04
-0.06,-1.37,-0.47,7.72,10.09,6.8
-0.2,-1.33,-0.36,-5.45,20.3,-13.68
-0.2,-1.17,-0.35,-7.39,34.8,-24.86
-0.05,-1.04,-0.36,-7.99,26.81,-35.43
0.15,-0.97,-0.35,-17.04,7.53,-37.93
0.24,-0.88,-0.33,-27.36,-20.91,-36.55
0.22,-0.78,-0.33,-43.96,-37.63,-28.67
0.21,-0.62,-0.36,-52.04,-38.1,-15.08
0.23,-0.43,-0.43,-50.69,-40.21,-5.29
0.22,-0.27,-0.5,-47.96,-31.13,7.15
0.27,-0.22,-0.6,-30.05,-17.73,24.56
0.26,-0.24,-0.64,-10.0,-17.28,28.75
0.13,-0.38,-0.63,-6.83,-1.95,30.68
0.01,-0.65,-0.62,-12.53,6.14,30.23
-0.03,-0.83,-0.65,-5.91,20.99,33.12
0.06,-0.95,-0.7,17.99,24.16,32.77
0.05,-1.09,-0.64,29.49,13.23,14.15
-0.04,-1.3,-0.54,20.82,14.73,9.65
-0.12,-1.38,-0.44,5.98,16.37,-4.6
-0.18,-1.26,-0.38,-3.47,27.85,-21.21
-0.12,-1.07,-0.36,-7.9,32.23,-31.16
0.04,-0.98,-0.37,-12.87,23.03,-36.68
0.17,-0.92,-0.35,-23.2,1.44,-35.39
0.22,-0.81,-0.35,-35.29,-22.88,-31.38
0.18,-0.67,-0.35,-46.78,-34.61,-21.61
0.2,-0.52,-0.41,-42.23,-31.52,-10.41
