ax,ay,az,gx,gy,gz
-0.43,-0.78,-0.72,-28.07,-48.16,14.56
-0.67,-0.81,-0.78,-10.7,-57.5,-19.76
-0.82,-0.8,-0.78,2.58,-21.6,-40.28
-0.7,-0.77,-0.69,13.43,8.96,-61.68
-0.48,-0.73,-0.66,19.61,15.13,-64.0
-0.27,-0.74,-0.69,21.34,22.13,-64.0
0.09,-0.73,-0.64,17.73,31.43,-46.73
0.43,-0.66,-0.58,16.99,17.66,-25.46
0.54,-0.58,-0.53,8.87,8.7,-7.13
0.62,-0.56,-0.44,-6.94,28.24,31.61
0.67,-0.58,-0.38,-22.68,29.71,52.7
0.51,-0.63,-0.43,-37.12,14.78,60.94
0.23,-0.65,-0.5,-47.89,15.3,64.0
0.05,-0.63,-0.55,-46.6,2.78,64.0
-0.14,-0.65,-0.64,-33.85,-21.44,51.36
-0.42,-0.72,-0.71,-23.75,-44.74,28.06
-0.68,-0.75,-0.73,-8.42,-56.13,-6.45
-0.87,-0.76,-0.76,8.14,-27.18,-28.25
-0.76,-0.79,-0.68,12.74,15.4,-44.31
-0.48,-0.79,-0.63,22.73,27.32,-52.1
-0.22,-0.77,-0.64,27.1,22.97,-51.04
0.06,-0.77,-0.65,23.76,18.21,-33.8
0.35,-0.75,-0.6,18.42,19.09,-6.9
0.55,-0.66,-0.53,11.83,3.48,4.74
0.51,-0.62,-0.45,-8.82,14.69,27.02
0.49,-0.67,-0.42,-21.67,30.46,46.84
0.42,-0.72,-0.45,-37.6,23.54,51.81
0.19,-0.73,-0.49,-48.67,24.58,58.05
0.06,-0.7,-0.52,-51.29,14.37,56.4
-0.09,-0.7,-0.6,-41.95,-16.22,41.28
-0.33,-0.75,-0.71,-29.27,-41.26,21.8
-0.56,-0.78,-0.74,-14.25,-51.49,-7.13
-0.74,-0.8,-0.75,1.74,-25.78,-31.08
-0.68,-0.8,-0.7,8.11,11.67,-43.75
-0.48,-0.76,-0.64,13.8,20.19,-58.25
-0.3,-0.75,-0.61,16.02,23.5,-61.81
-0.05,-0.79,-0.58,8.78,28.64,-46.07
0.27,-0.78,-0.53,3.19,30.67,-21.71
0.49,-0.68,-0.49,-3.1,6.97,-8.86
0.48,-0.62,-0.43,-15.2,8.42,13.44
0.51,-0.64,-0.41,-31.68,18.41,39.24
0.49,-0.69,-0.43,-47.69,9.56,45.7
0.25,-0.7,-0.48,-58.25,12.08,51.88
0.06,-0.64,-0.52,-60.3,15.75,54.09
-0.07,-0.63,-0.58,-49.29,-4.13,45.83
-0.28,-0.7,-0.71,-33.98,-33.02,26.49
-0.54,-0.76,-0.76,-16.79,-47.57,1.54
-0.77,-0.78,-0.75,1.98,-34.02,-26.79
-0.75,-0.78,-0.7,11.5,10.31,-38.44
-0.48,-0.75,-0.61,20.51,22.61,-53.94
-0.3,-0.74,-0.58,20.9,19.63,-55.33
-0.06,-0.78,-0.56,19.29,16.04,-43.36
0.21,-0.78,-0.53,15.36,21.03,-18.78
0.45,-0.7,-0.5,16.48,7.93,-4.06
0.43,-0.65,-0.45,6.69,-0.75,11.4
0.36,-0.67,-0.41,-2.66,19.82,35.4
0.37,-0.69,-0.4,-11.51,20.36,44.24
0.26,-0.7,-0.42,-27.7,9.36,44.79
0.12,-0.71,-0.48,-39.13,5.16,48.12
0.02,-0.7,-0.52,-40.75,-1.82,46.1
-0.09,-0.69,-0.6,-33.44,-28.14,31.18
-0.27,-0.73,-0.7,-23.13,-39.43,18.19
-0.46,-0.77,-0.76,-9.57,-40.93,-5.59
-0.6,-0.79,-0.76,1.5,-25.53,-22.63
-0.59,-0.82,-0.71,8.32,14.31,-31.48
-0.37,-0.79,-0.65,14.5,22.53,-42.88
-0.18,-0.78,-0.61,10.87,18.54,-43.79
-0.01,-0.83,-0.59,3.89,11.76,-34.78
0.2,-0.82,-0.54,-3.77,8.3,-17.88
0.36,-0.75,-0.51,-10.29,3.99,-2.54
0.42,-0.69,-0.45,-22.42,6.45,14.43
0.41,-0.68,-0.4,-35.91,16.54,31.38
0.34,-0.73,-0.43,-52.25,14.77,40.66
0.16,-0.74,-0.49,-57.88,18.22,47.81
0.03,-0.69,-0.51,-59.83,13.43,49.77
-0.08,-0.7,-0.55,-50.54,-17.54,36.5
-0.26,-0.74,-0.69,-27.96,-34.56,21.11
-0.51,-0.76,-0.74,-16.35,-45.02,-8.06
-0.77,-0.76,-0.71,1.94,-26.05,-29.21
-0.73,-0.74,-0.68,13.65,9.44,-40.93
-0.53,-0.71,-0.62,23.95,8.35,-59.34
-0.4,-0.73,-0.56,24.95,7.25,-64.0
-0.13,-0.79,-0.55,20.59,16.21,-51.64
0.23,-0.76,-0.51,14.28,17.03,-26.13
0.47,-0.68,-0.44,6.26,-0.56,-15.33
0.5,-0.64,-0.38,-11.23,-0.1,9.91
0.54,-0.7,-0.35,-28.85,20.6,38.07
0.55,-0.74,-0.36,-43.53,15.2,49.1
0.37,-0.74,-0.41,-58.39,10.96,58.79
0.17,-0.71,-0.48,-63.04,9.98,64.0
0.03,-0.7,-0.57,-52.28,-5.66,57.83
-0.19,-0.75,-0.67,-44.71,-28.04,42.5
-0.48,-0.79,-0.73,-28.57,-57.42,11.61
-0.81,-0.76,-0.78,-3.4,-60.73,-22.48
-0.93,-0.76,-0.76,12.48,-14.71,-42.55
-0.74,-0.77,-0.67,21.96,20.02,-59.95
-0.5,-0.77,-0.58,21.89,12.26,-64.0
-0.24,-0.82,-0.57,18.04,17.06,-64.0
0.17,-0.82,-0.57,13.08,31.39,-36.56
0.53,-0.72,-0.5,7.12,8.39,-23.03
0.53,-0.65,-0.4,-8.9,-7.83,-5.44
0.52,-0.67,-0.36,-26.32,15.53,30.16
0.59,-0.71,-0.35,-43.41,13.75,45.23
0.39,-0.73,-0.38,-55.85,8.46,53.55
0.12,-0.7,-0.44,-61.83,16.06,63.67
-0.04,-0.67,-0.49,-54.05,5.96,56.23
-0.22,-0.73,-0.61,-38.96,-5.92,48.63
-0.38,-0.79,-0.67,-31.95,-33.15,22.21
-0.63,-0.77,-0.71,-5.78,-45.46,-4.72
-0.78,-0.75,-0.74,11.31,-30.24,-26.9
-0.71,-0.81,-0.66,24.02,1.47,-41.09
-0.54,-0.84,-0.6,28.39,5.1,-61.62
-0.37,-0.86,-0.57,22.44,2.01,-64.0
-0.13,-0.88,-0.54,12.82,9.57,-57.86
0.31,-0.8,-0.55,9.16,20.44,-32.61
0.52,-0.66,-0.53,1.71,-3.83,-22.47
0.5,-0.59,-0.43,-17.4,17.02,12.32
0.62,-0.62,-0.4,-33.2,26.33,40.71
0.57,-0.65,-0.43,-53.89,15.88,50.01
0.29,-0.68,-0.45,-64.0,21.02,63.7
0.06,-0.64,-0.48,-64.0,16.92,64.0
-0.1,-0.64,-0.59,-47.9,-11.08,54.92
-0.33,-0.73,-0.69,-37.94,-28.43,38.99
-0.6,-0.79,-0.71,-23.21,-50.93,1.65
-0.88,-0.77,-0.73,-2.48,-36.18,-24.1
-0.86,-0.77,-0.69,9.21,18.41,-36.02
-0.59,-0.76,-0.59,18.75,31.43,-51.77
-0.36,-0.78,-0.54,15.78,25.55,-60.27
-0.12,-0.84,-0.54,10.45,14.83,-52.96
0.17,-0.83,-0.56,4.22,16.15,-27.98
0.44,-0.74,-0.52,-0.67,7.08,-11.51
0.52,-0.65,-0.41,-13.52,-2.82,2.4
0.51,-0.67,-0.37,-30.46,11.02,28.42
0.49,-0.73,-0.39,-44.19,13.82,41.61
0.3,-0.75,-0.43,-56.98,13.95,50.1
0.07,-0.71,-0.49,-59.33,21.66,58.75
-0.01,-0.68,-0.53,-52.9,7.46,51.91
-0.13,-0.73,-0.62,-40.99,-23.21,39.71
-0.35,-0.79,-0.71,-31.19,-42.23,19.26
-0.65,-0.76,-0.74,-14.81,-57.99,-11.08
-0.86,-0.72,-0.76,9.19,-34.46,-32.19
-0.81,-0.71,-0.72,18.21,6.08,-46.43
-0.56,-0.7,-0.62,25.48,19.22,-64.0
-0.38,-0.74,-0.56,22.72,15.93,-64.0
-0.08,-0.8,-0.55,18.16,16.62,-55.05
0.29,-0.79,-0.59,13.0,22.73,-26.98
0.55,-0.68,-0.48,3.3,14.47,-4.86
0.62,-0.63,-0.34,-16.47,18.26,24.53
0.66,-0.72,-0.31,-34.6,25.35,45.63
0.54,-0.78,-0.36,-52.74,12.42,53.91
0.21,-0.77,-0.41,-64.0,10.91,64.0
0.03,-0.72,-0.48,-63.3,8.92,64.0
-0.11,-0.7,-0.6,-50.35,-18.1,51.36
-0.37,-0.72,-0.68,-36.64,-45.93,25.62
-0.71,-0.74,-0.72,-16.46,-59.71,-6.77
-0.91,-0.76,-0.76,3.09,-30.05,-30.51
-0.8,-0.77,-0.72,12.96,16.24,-40.13
-0.52,-0.73,-0.62,19.85,31.71,-54.32
-0.25,-0.73,-0.57,18.65,31.4,-58.33
-0.02,-0.8,-0.52,10.31,16.58,-47.58
0.27,-0.82,-0.53,1.9,13.84,-19.98
0.53,-0.75,-0.51,-4.62,17.49,7.0
0.63,-0.67,-0.38,-22.25,11.7,24.86
0.57,-0.73,-0.32,-38.19,18.94,42.45
0.39,-0.81,-0.4,-59.71,9.8,50.88
0.14,-0.76,-0.45,-64.0,18.6,62.43
-0.01,-0.68,-0.5,-63.76,2.8,57.33
-0.16,-0.68,-0.66,-48.02,-26.18,42.39
-0.44,-0.71,-0.72,-37.21,-48.64,17.18
-0.71,-0.71,-0.76,-14.45,-52.17,-12.5
-0.88,-0.69,-0.81,4.98,-20.91,-32.59
-0.77,-0.68,-0.71,12.93,24.81,-44.34
-0.54,-0.68,-0.6,16.44,36.71,-56.02
-0.25,-0.71,-0.57,14.96,36.37,-55.33
0.01,-0.76,-0.55,8.62,27.51,-43.72
0.26,-0.75,-0.51,5.54,13.04,-25.33
0.41,-0.71,-0.49,-1.2,3.88,-8.51
0.46,-0.72,-0.42,-17.38,12.86,16.42
0.5,-0.76,-0.39,-30.89,24.35,35.76
0.43,-0.81,-0.41,-45.79,17.61,44.42
0.23,-0.8,-0.45,-57.85,19.54,52.64
0.05,-0.74,-0.49,-58.11,17.15,55.45
-0.08,-0.69,-0.58,-49.96,-14.09,40.65
-0.32,-0.69,-0.71,-28.79,-48.95,20.83
-0.58,-0.73,-0.78,-13.89,-57.0,-7.01
-0.83,-0.73,-0.76,1.9,-35.97,-30.73
-0.8,-0.7,-0.66,10.72,19.14,-42.26
-0.53,-0.68,-0.58,14.39,31.82,-54.76
-0.29,-0.7,-0.53,11.22,32.87,-52.82
-0.02,-0.74,-0.54,7.23,20.14,-40.68
0.25,-0.74,-0.53,3.21,18.67,-15.33
0.5,-0.69,-0.47,-8.44,12.93,8.44
0.61,-0.68,-0.38,-23.19,8.45,27.5
0.58,-0.73,-0.35,-33.61,5.49,40.8
0.42,-0.78,-0.41,-48.58,-0.63,51.54
0.18,-0.76,-0.48,-56.38,1.45,60.12
0.01,-0.7,-0.54,-52.21,-2.11,59.68
-0.17,-0.7,-0.64,-42.55,-30.28,41.95
-0.45,-0.73,-0.7,-28.64,-49.95,21.12
-0.7,-0.71,-0.77,-9.23,-63.45,-12.26
-0.92,-0.7,-0.8,9.11,-36.88,-31.81
-0.89,-0.71,-0.71,22.05,8.0,-50.13
-0.67,-0.7,-0.61,30.35,21.51,-64.0
-0.38,-0.76,-0.56,23.5,20.51,-64.0
-0.02,-0.82,-0.62,17.12,28.72,-45.82
0.39,-0.78,-0.58,13.81,31.03,-21.58
0.56,-0.7,-0.46,4.2,6.46,-10.49
0.54,-0.7,-0.37,-13.91,15.44,17.26
0.59,-0.76,-0.37,-32.01,21.16,38.54
0.48,-0.8,-0.41,-47.87,8.97,46.07
0.15,-0.76,-0.46,-57.43,12.28,52.74
-0.09,-0.67,-0.51,-59.71,19.53,55.58
-0.2,-0.62,-0.56,-50.64,-13.28,40.14
-0.4,-0.6,-0.67,-27.43,-64.0,13.62
-0.71,-0.63,-0.83,4.54,-64.0,-19.71
-0.98,-0.67,-0.84,14.6,-52.44,-43.34
-1.01,-0.71,-0.68,20.12,4.69,-63.84
-0.76,-0.69,-0.57,29.54,32.84,-64.0
-0.31,-0.73,-0.55,23.22,42.65,-64.0
0.13,-0.83,-0.57,14.88,22.21,-62.09
0.39,-0.86,-0.58,4.05,6.55,-43.03
0.51,-0.8,-0.53,-3.96,0.19,-22.31
0.54,-0.74,-0.46,-19.21,9.06,-0.96
0.56,-0.73,-0.39,-36.94,32.93,26.57
0.56,-0.74,-0.38,-55.52,28.07,42.87
0.31,-0.74,-0.45,-64.0,-1.23,45.81
-0.07,-0.68,-0.56,-59.85,-27.78,36.76
-0.43,-0.59,-0.69,-34.46,-63.56,10.29
-0.73,-0.6,-0.78,-3.01,-64.0,-26.15
-0.95,-0.73,-0.7,8.92,-32.99,-52.59
-0.91,-0.81,-0.57,15.12,5.47,-64.0
-0.58,-0.78,-0.56,20.81,36.27,-64.0
-0.06,-0.76,-0.56,17.69,53.89,-54.75
0.42,-0.75,-0.51,15.04,46.18,-31.75
0.62,-0.72,-0.42,5.63,43.58,0.04
0.69,-0.73,-0.31,-14.65,41.41,29.01
0.69,-0.77,-0.28,-26.96,35.15,48.87
0.56,-0.81,-0.33,-42.24,13.69,58.93
0.31,-0.82,-0.37,-56.59,-12.18,62.84
0.05,-0.78,-0.44,-58.88,-38.03,58.21
-0.17,-0.71,-0.59,-37.05,-64.0,36.78
-0.45,-0.72,-0.73,-11.46,-64.0,6.23
-0.77,-0.81,-0.73,-2.01,-64.0,-33.92
-0.92,-0.87,-0.69,9.84,-6.43,-46.81
-0.68,-0.81,-0.62,21.88,26.29,-62.36
-0.36,-0.75,-0.55,23.19,20.6,-64.0
-0.12,-0.82,-0.55,17.08,13.63,-64.0
0.25,-0.84,-0.54,8.62,24.11,-37.81
0.58,-0.74,-0.46,-2.79,15.48,-10.48
0.68,-0.66,-0.36,-17.79,0.87,7.9
0.6,-0.7,-0.34,-38.26,9.17,35.55
0.52,-0.77,-0.43,-47.99,11.16,45.51
0.26,-0.79,-0.5,-58.78,12.19,50.11
0.08,-0.76,-0.51,-61.53,17.14,53.3
-0.01,-0.74,-0.56,-54.15,6.09,49.89
-0.12,-0.74,-0.67,-36.0,-14.57,34.8
-0.37,-0.78,-0.69,-26.94,-31.19,13.05
-0.67,-0.82,-0.68,-10.18,-49.78,-23.51
-0.84,-0.79,-0.7,3.88,-16.62,-38.1
-0.69,-0.75,-0.61,7.63,-2.55,-57.2
-0.48,-0.72,-0.51,11.1,-5.76,-64.0
-0.28,-0.72,-0.5,12.86,0.59,-64.0
0.1,-0.73,-0.49,2.84,34.11,-33.69
0.55,-0.67,-0.41,-6.9,40.91,4.13
0.77,-0.59,-0.32,-25.89,17.42,30.56
0.77,-0.63,-0.32,-35.33,14.85,61.42
0.64,-0.71,-0.41,-47.08,-3.32,64.0
0.34,-0.78,-0.46,-64.0,-11.76,64.0
0.07,-0.77,-0.51,-64.0,-27.43,64.0
-0.21,-0.7,-0.73,-31.96,-52.5,49.41
-0.65,-0.7,-0.79,-11.86,-64.0,3.71
-1.1,-0.8,-0.75,7.26,-50.31,-36.97
-1.11,-0.88,-0.69,14.44,25.51,-47.25
-0.71,-0.83,-0.56,18.21,45.09,-64.0
-0.3,-0.77,-0.53,14.71,34.87,-64.0
0.05,-0.81,-0.56,7.61,34.85,-45.2
0.45,-0.81,-0.52,0.54,26.5,-16.12
0.68,-0.74,-0.41,-13.25,10.7,12.23
0.72,-0.68,-0.37,-25.28,6.49,36.03
0.63,-0.69,-0.42,-37.94,0.17,48.36
0.35,-0.76,-0.47,-51.31,-1.83,52.46
0.05,-0.78,-0.5,-59.61,15.81,60.59
-0.06,-0.72,-0.53,-57.49,19.24,58.82
-0.19,-0.66,-0.64,-35.14,-8.63,37.41
-0.46,-0.69,-0.75,-17.34,-34.92,9.39
-0.8,-0.77,-0.72,-4.43,-45.44,-23.73
-0.9,-0.8,-0.69,4.71,2.49,-37.48
-0.67,-0.74,-0.6,12.88,28.46,-56.04
-0.43,-0.71,-0.51,12.04,40.55,-61.96
-0.13,-0.76,-0.49,2.25,50.06,-45.36
0.27,-0.77,-0.46,-7.2,54.92,-11.15
0.64,-0.72,-0.4,-18.77,33.12,15.79
0.76,-0.68,-0.34,-35.22,12.53,41.11
0.67,-0.71,-0.39,-44.42,-9.12,54.17
0.37,-0.73,-0.47,-55.39,-17.9,59.88
0.04,-0.69,-0.49,-57.33,-9.63,62.67
-0.14,-0.68,-0.58,-44.62,-15.87,50.33
-0.37,-0.72,-0.71,-33.04,-27.72,26.84
-0.68,-0.71,-0.74,-17.22,-39.58,-1.37
-0.88,-0.7,-0.73,5.86,-34.57,-30.14
-0.83,-0.73,-0.71,18.08,5.7,-43.1
-0.6,-0.74,-0.61,25.47,12.52,-64.0
-0.4,-0.75,-0.53,22.49,6.6,-64.0
-0.14,-0.82,-0.54,13.85,15.79,-55.81
0.29,-0.83,-0.55,7.01,25.94,-29.3
0.58,-0.75,-0.46,-3.56,16.91,-9.65
0.64,-0.72,-0.38,-21.03,21.74,19.8
0.7,-0.76,-0.36,-36.62,32.64,50.57
0.61,-0.8,-0.4,-55.27,15.28,59.72
0.29,-0.77,-0.44,-64.0,15.38,64.0
0.04,-0.69,-0.48,-64.0,3.54,64.0
-0.16,-0.66,-0.63,-47.2,-27.99,47.51
-0.46,-0.68,-0.71,-33.1,-52.09,20.13
-0.76,-0.71,-0.72,-13.7,-63.44,-16.07
-0.97,-0.73,-0.74,4.15,-33.13,-36.59
-0.85,-0.71,-0.68,14.42,20.92,-49.97
-0.52,-0.69,-0.58,18.8,35.79,-61.61
-0.24,-0.73,-0.53,12.58,30.77,-60.42
0.09,-0.8,-0.53,1.82,33.0,-33.52
0.51,-0.77,-0.52,-4.52,33.91,1.67
0.74,-0.68,-0.42,-18.59,15.37,24.85
0.75,-0.7,-0.34,-36.16,10.44,47.47
0.57,-0.76,-0.4,-50.66,-1.65,59.74
0.25,-0.75,-0.45,-64.0,-0.74,64.0
0.02,-0.69,-0.49,-64.0,-1.77,64.0
-0.14,-0.67,-0.57,-54.33,-11.22,60.21
-0.38,-0.69,-0.66,-48.22,-34.23,34.14
-0.68,-0.69,-0.71,-27.46,-53.52,4.65
-0.9,-0.67,-0.81,3.09,-41.27,-25.54
-0.91,-0.7,-0.79,13.29,10.0,-39.81
-0.67,-0.73,-0.66,20.31,38.66,-52.96
-0.37,-0.72,-0.6,21.27,44.9,-56.6
-0.03,-0.77,-0.55,9.19,41.63,-44.27
0.31,-0.82,-0.52,1.32,28.15,-18.34
0.56,-0.79,-0.49,-9.96,18.97,8.21
0.67,-0.72,-0.42,-23.74,10.81,33.17
0.61,-0.73,-0.4,-38.83,-2.78,43.04
0.36,-0.79,-0.44,-54.64,-10.36,50.31
0.06,-0.77,-0.47,-62.45,-0.97,55.36
-0.12,-0.71,-0.56,-64.0,-6.94,48.23
-0.32,-0.62,-0.63,-46.79,-40.95,27.34
-0.56,-0.58,-0.77,-13.61,-63.85,1.14
-0.82,-0.67,-0.83,5.08,-45.4,-27.26
-0.92,-0.73,-0.72,11.75,13.75,-41.68
-0.69,-0.7,-0.6,19.64,36.27,-56.63
-0.38,-0.69,-0.59,19.2,25.74,-62.73
-0.11,-0.75,-0.58,13.71,15.95,-53.41
0.2,-0.78,-0.55,10.05,5.69,-35.23
0.37,-0.73,-0.56,5.42,1.2,-18.79
0.39,-0.67,-0.5,-0.38,-8.3,-6.54
0.35,-0.7,-0.42,-21.79,21.23,19.9
0.45,-0.79,-0.38,-39.54,28.1,39.59
0.43,-0.8,-0.42,-51.71,17.35,51.21
0.2,-0.76,-0.46,-59.82,14.57,56.36
0.01,-0.71,-0.48,-63.16,18.45,57.3
-0.13,-0.69,-0.54,-61.55,-24.18,46.06
-0.3,-0.66,-0.69,-37.36,-58.75,31.01
-0.55,-0.66,-0.83,-11.05,-64.0,-2.07
-0.92,-0.67,-0.79,2.12,-55.3,-38.98
-1.01,-0.69,-0.7,15.8,22.79,-48.12
-0.7,-0.66,-0.63,23.35,43.36,-63.56
-0.36,-0.7,-0.6,21.38,43.64,-64.0
-0.06,-0.78,-0.55,11.97,27.29,-54.9
0.26,-0.81,-0.53,3.6,14.47,-30.89
0.49,-0.75,-0.54,-0.28,0.26,-11.61
0.51,-0.66,-0.49,-10.18,-6.85,4.31
0.44,-0.69,-0.39,-28.61,17.14,30.29
0.43,-0.77,-0.38,-42.43,17.67,41.82
0.28,-0.79,-0.43,-55.94,11.82,50.23
0.11,-0.73,-0.47,-59.51,13.54,56.71
-0.04,-0.66,-0.53,-57.64,4.77,53.48
-0.19,-0.64,-0.61,-48.73,-27.5,39.39
-0.38,-0.65,-0.71,-26.78,-52.88,20.57
-0.6,-0.67,-0.78,-5.43,-60.8,-10.73
-0.84,-0.7,-0.76,8.57,-33.82,-33.07
-0.82,-0.72,-0.68,16.73,23.59,-44.6
-0.55,-0.71,-0.59,20.79,33.49,-58.38
-0.31,-0.74,-0.57,16.67,23.62,-63.75
-0.06,-0.81,-0.58,10.67,10.54,-54.97
0.23,-0.81,-0.59,7.54,11.99,-31.54
0.42,-0.74,-0.55,1.15,6.7,-12.77
0.52,-0.68,-0.45,-10.04,8.18,9.29
0.55,-0.7,-0.39,-27.62,17.34,34.05
0.48,-0.77,-0.4,-40.82,16.75,46.64
0.26,-0.79,-0.44,-55.88,11.63,53.71
-0.0,-0.73,-0.49,-56.93,6.85,54.97
-0.15,-0.68,-0.57,-49.56,-18.62,41.54
-0.33,-0.67,-0.68,-32.71,-33.12,26.61
-0.51,-0.69,-0.73,-17.34,-47.47,-2.96
-0.77,-0.7,-0.73,2.41,-44.29,-29.23
-0.82,-0.73,-0.71,13.79,2.55,-38.31
-0.6,-0.73,-0.65,22.74,27.2,-50.36
-0.37,-0.73,-0.57,23.07,23.54,-60.39
-0.18,-0.78,-0.54,18.79,12.39,-55.01
0.12,-0.79,-0.57,17.14,14.48,-33.84
0.37,-0.72,-0.53,18.93,0.47,-20.42
0.38,-0.67,-0.47,9.31,-14.82,-10.37
0.35,-0.73,-0.37,-9.92,7.79,20.14
0.45,-0.77,-0.36,-23.74,17.63,36.06
0.39,-0.76,-0.41,-37.41,14.72,44.68
0.18,-0.76,-0.41,-51.28,8.8,50.52
0.02,-0.74,-0.48,-53.7,-0.42,54.23
-0.09,-0.71,-0.57,-49.35,-22.51,44.83
-0.27,-0.71,-0.66,-40.56,-45.78,27.65
-0.54,-0.72,-0.71,-23.0,-64.0,-3.08
-0.78,-0.72,-0.76,-4.87,-52.79,-29.77
-0.83,-0.74,-0.75,10.72,-4.66,-43.34
-0.67,-0.74,-0.7,19.99,32.52,-58.21
-0.44,-0.76,-0.65,22.04,40.18,-64.0
-0.25,-0.81,-0.6,18.99,25.61,-64.0
0.02,-0.83,-0.61,18.13,19.38,-53.71
0.29,-0.79,-0.65,19.06,0.85,-42.73
0.29,-0.72,-0.6,16.18,-19.51,-42.43
0.07,-0.72,-0.5,10.72,-20.69,-45.08
-0.06,-0.76,-0.49,0.82,-6.52,-44.37
-0.1,-0.77,-0.51,-5.53,20.9,-36.95
-0.01,-0.7,-0.46,-10.55,34.2,-30.75
0.09,-0.65,-0.4,-16.1,36.51,-20.41
0.23,-0.66,-0.37,-21.88,36.33,-3.72
0.36,-0.7,-0.34,-32.55,31.63,20.85
0.46,-0.73,-0.33,-39.76,25.35,42.25
0.48,-0.75,-0.35,-43.76,9.6,54.57
0.37,-0.73,-0.37,-51.72,-1.01,64.0
0.24,-0.74,-0.39,-58.99,-4.12,64.0
0.14,-0.78,-0.47,-55.0,-23.19,64.0
-0.09,-0.79,-0.59,-46.23,-43.81,53.6
-0.46,-0.78,-0.66,-33.38,-63.67,17.53
-0.8,-0.78,-0.73,-9.08,-64.0,-15.4
-0.98,-0.82,-0.76,8.69,-31.89,-44.28
-0.87,-0.85,-0.68,14.63,12.52,-60.45
-0.58,-0.81,-0.59,19.42,19.75,-64.0
-0.3,-0.79,-0.56,18.47,22.46,-64.0
0.11,-0.8,-0.57,17.9,28.54,-53.36
0.44,-0.74,-0.56,14.56,13.22,-29.65
0.57,-0.68,-0.45,-0.57,11.44,-5.24
0.63,-0.66,-0.33,-20.86,18.8,27.07
0.69,-0.68,-0.27,-41.21,15.12,44.86
0.6,-0.73,-0.34,-54.54,1.85,56.83
0.32,-0.74,-0.41,-64.0,-2.57,64.0
0.11,-0.71,-0.44,-64.0,-6.12,64.0
-0.06,-0.7,-0.57,-54.48,-18.97,62.42
-0.33,-0.73,-0.7,-41.45,-45.69,34.87
-0.66,-0.76,-0.73,-22.89,-58.54,1.38
-0.91,-0.78,-0.76,2.35,-42.8,-31.05
-0.91,-0.82,-0.72,12.52,9.63,-47.82
-0.66,-0.81,-0.62,19.49,26.4,-64.0
-0.41,-0.79,-0.56,18.16,25.49,-64.0
-0.07,-0.81,-0.55,15.65,30.56,-59.43
0.27,-0.78,-0.54,14.01,15.29,-44.73
0.41,-0.71,-0.51,3.4,3.3,-26.55
0.47,-0.67,-0.42,-10.47,14.41,1.13
0.56,-0.64,-0.32,-32.38,17.17,26.08
0.58,-0.68,-0.3,-48.89,15.35,47.42
0.47,-0.72,-0.39,-56.31,0.94,57.96
0.25,-0.71,-0.45,-63.88,0.06,64.0
0.06,-0.7,-0.48,-60.23,-2.4,64.0
-0.08,-0.74,-0.6,-45.88,-11.55,56.92
-0.32,-0.79,-0.66,-40.32,-32.09,34.45
-0.6,-0.8,-0.71,-19.98,-45.51,3.03
-0.82,-0.78,-0.78,3.42,-35.54,-25.73
-0.82,-0.81,-0.75,13.59,11.45,-42.28
-0.62,-0.83,-0.65,17.86,28.07,-60.74
-0.36,-0.81,-0.59,17.31,26.12,-64.0
-0.1,-0.8,-0.58,15.8,30.35,-55.96
0.24,-0.78,-0.57,13.69,21.01,-41.41
0.38,-0.73,-0.52,4.95,4.84,-25.51
0.42,-0.7,-0.43,-8.99,17.48,-0.16
0.53,-0.68,-0.36,-24.48,28.0,25.51
0.58,-0.68,-0.33,-42.88,21.61,43.13
0.45,-0.73,-0.38,-55.55,13.69,54.47
0.22,-0.76,-0.43,-64.0,20.47,64.0
0.09,-0.72,-0.47,-61.95,19.21,64.0
-0.05,-0.71,-0.56,-49.14,1.68,55.97
-0.25,-0.75,-0.65,-43.82,-24.76,40.53
-0.5,-0.75,-0.7,-27.83,-50.55,9.51
-0.78,-0.71,-0.76,0.17,-52.22,-21.56
-0.88,-0.74,-0.73,13.13,-9.86,-39.05
-0.69,-0.79,-0.63,17.01,28.11,-55.56
-0.46,-0.79,-0.57,15.78,30.3,-64.0
-0.19,-0.78,-0.56,16.4,29.78,-61.92
0.14,-0.77,-0.56,12.5,28.72,-41.76
0.43,-0.74,-0.53,5.71,16.62,-23.71
0.5,-0.7,-0.45,-6.42,-2.34,-6.99
0.51,-0.7,-0.38,-19.41,12.54,21.04
0.56,-0.71,-0.38,-34.43,16.33,39.18
0.44,-0.76,-0.38,-50.15,11.96,48.53
0.21,-0.78,-0.42,-58.04,16.75,58.41
0.05,-0.74,-0.49,-55.43,10.05,55.83
-0.09,-0.73,-0.6,-44.64,-8.55,45.98
-0.3,-0.75,-0.67,-36.91,-38.11,25.23
-0.56,-0.73,-0.72,-14.44,-56.45,-5.08
-0.8,-0.71,-0.76,8.89,-45.07,-32.64
-0.8,-0.74,-0.71,16.4,6.83,-44.26
-0.58,-0.76,-0.61,19.62,28.36,-59.91
-0.36,-0.76,-0.54,17.0,29.08,-64.0
-0.1,-0.77,-0.53,14.56,27.87,-57.49
0.22,-0.77,-0.55,9.22,28.76,-33.12
0.48,-0.72,-0.5,2.37,12.4,-14.37
0.56,-0.69,-0.39,-10.11,4.37,6.92
0.58,-0.69,-0.38,-24.12,13.45,33.26
0.54,-0.74,-0.41,-36.29,16.87,44.84
0.35,-0.79,-0.43,-48.83,21.58,53.33
0.13,-0.78,-0.45,-56.87,29.93,61.63
0.05,-0.74,-0.49,-54.66,10.36,56.51
-0.04,-0.76,-0.6,-46.78,-15.56,50.25
-0.25,-0.77,-0.71,-39.38,-51.73,22.98
-0.61,-0.71,-0.73,-15.69,-63.1,-4.19
-0.81,-0.71,-0.76,5.08,-43.24,-35.16
-0.81,-0.75,-0.73,10.71,4.93,-43.85
-0.59,-0.78,-0.6,10.24,37.9,-58.52
-0.31,-0.78,-0.53,8.15,40.58,-64.0
-0.02,-0.8,-0.54,6.0,32.34,-57.6
0.23,-0.82,-0.56,3.54,15.82,-41.92
0.42,-0.78,-0.61,7.01,7.01,-24.02
0.45,-0.71,-0.57,4.89,5.15,-9.94
0.45,-0.71,-0.39,-13.32,24.34,15.95
0.55,-0.77,-0.33,-25.91,33.94,34.68
0.52,-0.8,-0.38,-36.1,24.02,44.0
0.31,-0.79,-0.42,-46.06,23.89,50.66
0.11,-0.76,-0.44,-52.35,21.72,55.35
0.0,-0.73,-0.52,-52.63,0.97,52.15
-0.16,-0.67,-0.65,-37.98,-25.18,38.51
-0.39,-0.63,-0.73,-20.97,-50.65,8.86
-0.7,-0.66,-0.73,-1.72,-57.94,-22.65
-0.85,-0.7,-0.67,6.29,-6.54,-35.39
-0.67,-0.69,-0.61,12.29,34.37,-51.45
-0.45,-0.66,-0.57,21.76,42.51,-64.0
-0.27,-0.7,-0.52,19.82,39.58,-64.0
0.01,-0.79,-0.49,17.84,50.32,-43.77
0.4,-0.79,-0.52,20.62,46.79,-22.59
0.58,-0.72,-0.45,9.95,22.07,-11.89
0.58,-0.71,-0.33,-1.88,13.28,11.8
0.62,-0.76,-0.29,-16.22,18.47,36.77
0.66,-0.78,-0.31,-26.74,7.22,48.92
0.5,-0.79,-0.36,-42.1,-3.69,56.62
0.26,-0.82,-0.38,-55.63,1.26,64.0
0.16,-0.82,-0.43,-57.4,-13.21,64.0
0.02,-0.79,-0.55,-51.94,-30.91,59.45
-0.18,-0.78,-0.65,-44.48,-57.36,38.37
-0.49,-0.73,-0.73,-27.14,-64.0,11.18
-0.76,-0.71,-0.82,5.68,-57.61,-21.2
-0.87,-0.76,-0.81,18.5,-1.78,-37.95
-0.72,-0.81,-0.67,23.18,53.44,-55.24
-0.46,-0.78,-0.59,25.15,64.0,-60.22
-0.1,-0.77,-0.53,20.45,64.0,-53.85
0.21,-0.78,-0.46,13.09,51.28,-35.42
0.51,-0.77,-0.41,0.02,29.95,-5.3
0.68,-0.74,-0.4,-7.74,6.9,17.64
0.69,-0.72,-0.37,-24.58,1.33,37.28
0.56,-0.77,-0.33,-42.97,-1.03,44.19
0.3,-0.81,-0.35,-60.68,2.77,53.35
0.1,-0.77,-0.4,-64.0,-0.82,57.27
-0.04,-0.7,-0.51,-63.05,-20.4,52.25
-0.19,-0.68,-0.62,-51.86,-49.79,32.89
-0.45,-0.69,-0.7,-30.78,-64.0,8.61
-0.69,-0.72,-0.75,-8.73,-64.0,-20.3
-0.81,-0.75,-0.73,1.88,-15.68,-38.62
-0.68,-0.75,-0.64,13.23,35.15,-51.66
-0.43,-0.72,-0.61,22.2,51.64,-58.37
-0.14,-0.76,-0.58,21.39,47.27,-56.46
0.09,-0.82,-0.54,14.69,33.33,-44.42
0.37,-0.82,-0.5,10.76,27.46,-16.33
0.59,-0.76,-0.47,4.49,12.17,1.82
0.63,-0.73,-0.37,-12.25,13.16,25.07
0.61,-0.78,-0.29,-29.36,15.95,42.27
0.48,-0.84,-0.31,-46.77,9.43,49.79
0.25,-0.83,-0.37,-60.38,6.45,57.01
0.06,-0.77,-0.44,-62.67,-6.22,54.94
-0.07,-0.74,-0.53,-57.13,-35.24,41.56
-0.28,-0.72,-0.64,-44.13,-60.08,19.68
-0.55,-0.71,-0.72,-21.02,-64.0,-13.57
-0.81,-0.7,-0.78,0.6,-52.65,-35.89
-0.84,-0.73,-0.73,11.55,4.29,-51.84
-0.64,-0.72,-0.64,22.67,46.28,-62.13
-0.32,-0.72,-0.58,28.82,49.94,-64.0
-0.1,-0.77,-0.55,25.59,30.69,-64.0
0.2,-0.81,-0.55,24.46,24.34,-44.41
0.45,-0.77,-0.56,24.99,6.83,-29.35
0.48,-0.71,-0.47,17.16,-8.98,-21.68
0.41,-0.72,-0.36,1.81,-0.16,-2.22
0.42,-0.78,-0.33,-15.99,23.3,19.66
0.48,-0.79,-0.31,-29.66,32.44,36.02
0.43,-0.78,-0.31,-44.18,22.06,44.0
0.27,-0.8,-0.33,-55.26,14.71,52.15
0.15,-0.79,-0.38,-62.71,-3.43,53.56
0.04,-0.77,-0.5,-53.74,-38.98,42.16
-0.16,-0.79,-0.62,-39.15,-61.99,27.82
-0.43,-0.82,-0.67,-26.09,-64.0,-6.18
-0.73,-0.8,-0.73,-5.15,-64.0,-34.19
-0.8,-0.79,-0.72,9.14,-3.38,-48.64
-0.62,-0.77,-0.63,18.51,25.12,-64.0
-0.38,-0.78,-0.56,22.39,30.5,-64.0
-0.08,-0.82,-0.55,22.32,38.27,-63.19
0.31,-0.81,-0.53,21.68,26.26,-46.1
0.48,-0.75,-0.46,15.23,7.29,-31.12
0.56,-0.73,-0.36,-0.88,14.39,-3.55
0.57,-0.72,-0.28,-20.29,18.96,18.54
0.55,-0.75,-0.24,-38.98,18.4,33.79
0.43,-0.79,-0.31,-49.56,6.99,42.18
0.19,-0.79,-0.39,-60.34,-1.08,43.5
0.02,-0.76,-0.45,-61.84,-7.64,41.81
-0.07,-0.74,-0.53,-50.5,-34.47,33.43
-0.18,-0.76,-0.64,-31.76,-54.38,18.76
-0.36,-0.82,-0.72,-16.83,-55.17,-3.77
-0.57,-0.86,-0.7,-8.79,-40.13,-30.93
-0.62,-0.84,-0.67,3.54,1.16,-40.9
-0.43,-0.78,-0.63,15.28,14.07,-54.45
-0.21,-0.77,-0.58,19.22,11.01,-61.09
-0.03,-0.84,-0.53,13.49,13.24,-49.89
0.27,-0.85,-0.48,5.91,31.1,-24.63
0.52,-0.74,-0.42,-0.78,24.49,-7.22
0.57,-0.67,-0.31,-18.95,14.15,11.79
0.57,-0.73,-0.28,-36.54,13.95,37.54
0.54,-0.8,-0.35,-49.79,-0.87,46.6
0.34,-0.81,-0.4,-61.15,-3.88,53.09
0.17,-0.76,-0.43,-63.8,-0.75,59.52
0.11,-0.74,-0.49,-58.69,-1.14,59.07
-0.01,-0.75,-0.6,-47.56,-16.24,49.7
-0.25,-0.76,-0.65,-41.31,-34.18,27.7
-0.54,-0.76,-0.68,-23.13,-40.1,3.51
-0.67,-0.77,-0.75,-1.62,-35.22,-23.51
-0.69,-0.8,-0.74,7.8,-4.21,-38.1
-0.55,-0.8,-0.64,16.33,18.5,-54.1
-0.35,-0.77,-0.56,18.81,19.92,-64.0
-0.12,-0.79,-0.54,16.46,30.0,-54.2
0.22,-0.8,-0.52,13.11,30.14,-34.2
0.47,-0.75,-0.45,3.52,19.01,-13.62
0.56,-0.71,-0.39,-7.32,20.23,11.81
0.62,-0.71,-0.33,-26.99,26.27,35.86
0.58,-0.75,-0.32,-42.86,20.45,47.75
0.38,-0.79,-0.37,-60.01,18.51,54.98
0.19,-0.77,-0.4,-64.0,23.99,63.88
0.09,-0.72,-0.47,-63.7,3.5,57.81
-0.04,-0.74,-0.6,-53.29,-22.84,49.85
-0.28,-0.75,-0.68,-43.24,-47.89,27.13
-0.57,-0.71,-0.73,-20.83,-59.68,-3.06
-0.79,-0.7,-0.78,4.16,-46.26,-29.43
-0.8,-0.75,-0.7,13.33,13.21,-42.21
-0.56,-0.76,-0.61,20.57,41.94,-55.88
-0.3,-0.75,-0.55,21.6,40.86,-62.01
-0.0,-0.79,-0.54,17.32,41.54,-48.44
0.34,-0.81,-0.52,11.09,36.27,-19.73
0.62,-0.77,-0.42,-3.48,22.81,4.73
0.73,-0.73,-0.34,-17.01,13.53,30.71
0.74,-0.75,-0.29,-32.2,7.42,47.46
0.56,-0.82,-0.32,-51.41,-1.35,55.78
0.26,-0.83,-0.38,-64.0,4.22,64.0
0.08,-0.78,-0.43,-64.0,-7.62,62.78
-0.09,-0.73,-0.55,-57.7,-26.02,52.19
-0.33,-0.72,-0.66,-45.47,-50.4,28.24
-0.6,-0.7,-0.71,-26.48,-64.0,-4.55
-0.81,-0.71,-0.74,-2.57,-40.37,-29.15
-0.76,-0.75,-0.72,7.24,13.8,-38.61
-0.49,-0.75,-0.65,16.53,47.84,-48.76
-0.23,-0.73,-0.59,18.57,50.71,-51.57
0.03,-0.78,-0.54,12.61,38.63,-40.27
0.29,-0.82,-0.52,5.58,27.76,-17.2
0.52,-0.78,-0.49,-0.15,7.64,1.4
0.55,-0.73,-0.42,-12.77,1.37,19.74
0.51,-0.75,-0.35,-31.14,9.66,35.58
0.41,-0.8,-0.36,-47.02,7.38,44.46
0.2,-0.79,-0.39,-62.4,5.81,51.94
0.06,-0.74,-0.44,-62.52,-4.68,52.65
-0.08,-0.7,-0.56,-51.45,-27.87,41.42
-0.26,-0.7,-0.67,-40.0,-41.55,25.37
-0.51,-0.72,-0.69,-22.45,-57.26,-3.74
-0.71,-0.72,-0.73,-4.95,-36.94,-25.49
-0.71,-0.73,-0.73,10.07,9.03,-35.88
-0.53,-0.71,-0.65,19.86,37.78,-47.86
-0.29,-0.72,-0.59,20.39,48.37,-51.4
-0.05,-0.79,-0.56,16.52,36.46,-45.31
0.2,-0.82,-0.51,9.62,25.48,-26.54
0.46,-0.79,-0.47,-1.41,19.31,2.45
0.66,-0.74,-0.41,-11.76,12.79,22.49
0.65,-0.74,-0.33,-30.06,6.91,36.42
0.44,-0.82,-0.34,-47.5,3.78,46.7
0.16,-0.83,-0.4,-62.22,6.65,52.46
-0.01,-0.75,-0.47,-64.0,-6.43,48.69
-0.19,-0.69,-0.57,-53.45,-44.81,30.71
-0.39,-0.68,-0.71,-28.25,-64.0,8.7
-0.68,-0.69,-0.81,-3.15,-64.0,-26.16
-0.88,-0.73,-0.77,6.81,-22.96,-46.16
-0.8,-0.72,-0.67,23.98,25.66,-62.82
-0.51,-0.69,-0.62,30.82,45.72,-64.0
-0.18,-0.77,-0.59,25.98,36.01,-64.0
0.1,-0.83,-0.54,17.54,35.7,-46.85
0.46,-0.8,-0.52,14.43,26.29,-23.76
0.64,-0.72,-0.48,7.87,-3.38,-12.72
0.58,-0.71,-0.37,-10.87,-3.07,11.4
0.56,-0.78,-0.31,-31.18,18.42,37.13
0.52,-0.81,-0.33,-47.56,11.46,44.76
0.26,-0.8,-0.36,-62.7,11.43,51.95
0.09,-0.77,-0.41,-64.0,5.04,51.07
-0.09,-0.73,-0.53,-57.5,-24.52,39.22
-0.31,-0.72,-0.68,-40.75,-58.27,15.33
-0.61,-0.73,-0.77,-14.46,-64.0,-17.87
-0.85,-0.74,-0.78,4.16,-39.67,-42.9
-0.81,-0.72,-0.68,18.98,8.94,-61.16
-0.58,-0.71,-0.59,25.62,22.51,-64.0
-0.25,-0.77,-0.56,21.67,34.64,-64.0
0.19,-0.81,-0.55,21.05,37.29,-42.23
0.5,-0.75,-0.52,16.25,0.3,-35.81
0.5,-0.72,-0.44,3.34,-7.55,-10.99
0.53,-0.74,-0.36,-14.0,6.21,17.33
0.61,-0.76,-0.29,-34.54,18.72,38.13
0.56,-0.78,-0.32,-49.0,12.1,48.07
0.32,-0.79,-0.39,-63.21,11.97,59.52
0.17,-0.75,-0.42,-64.0,23.64,64.0
0.07,-0.71,-0.49,-64.0,7.15,62.04
-0.11,-0.72,-0.62,-50.86,-19.82,49.48
-0.4,-0.74,-0.68,-37.24,-49.68,18.46
-0.7,-0.73,-0.75,-12.23,-64.0,-17.79
-0.89,-0.75,-0.81,9.81,-32.81,-38.37
-0.77,-0.76,-0.74,22.18,17.84,-51.79
-0.5,-0.75,-0.6,28.0,33.73,-64.0
-0.23,-0.77,-0.53,24.87,35.12,-61.27
0.16,-0.81,-0.53,19.69,40.36,-38.36
0.47,-0.79,-0.52,11.76,17.27,-21.11
0.57,-0.74,-0.42,-1.98,1.57,0.03
0.6,-0.73,-0.33,-19.14,5.52,28.55
0.62,-0.76,-0.3,-38.29,11.76,44.71
0.5,-0.79,-0.34,-54.31,7.6,53.17
0.23,-0.77,-0.37,-64.0,15.89,62.59
0.08,-0.73,-0.42,-64.0,11.34,62.63
-0.07,-0.69,-0.58,-55.36,-15.36,51.55
-0.3,-0.7,-0.72,-40.56,-44.39,25.65
-0.62,-0.7,-0.76,-19.37,-58.61,-3.06
-0.87,-0.73,-0.78,4.8,-40.52,-33.14
-0.85,-0.78,-0.75,13.87,7.62,-44.93
-0.58,-0.76,-0.66,24.45,35.45,-57.82
-0.27,-0.74,-0.58,24.54,32.66,-64.0
0.02,-0.79,-0.55,21.54,31.21,-54.61
0.28,-0.82,-0.56,15.03,28.26,-33.68
0.5,-0.78,-0.48,3.62,15.24,-9.97
0.6,-0.74,-0.38,-10.92,13.19,17.32
0.68,-0.74,-0.31,-32.21,16.6,40.74
0.63,-0.78,-0.33,-47.35,6.38,51.85
0.34,-0.79,-0.38,-64.0,6.91,60.16
0.08,-0.74,-0.42,-64.0,9.69,61.63
-0.09,-0.7,-0.53,-59.24,-9.55,49.61
-0.28,-0.71,-0.66,-46.56,-35.15,29.66
-0.56,-0.71,-0.75,-21.43,-55.72,0.22
-0.82,-0.71,-0.8,3.66,-49.3,-33.41
-0.9,-0.74,-0.76,18.33,7.3,-45.58
-0.66,-0.76,-0.63,27.09,39.33,-59.54
-0.3,-0.76,-0.54,25.96,35.04,-64.0
0.01,-0.81,-0.51,22.61,22.93,-52.81
0.34,-0.82,-0.55,14.82,25.59,-22.86
0.59,-0.74,-0.45,3.52,9.99,-3.18
0.63,-0.68,-0.32,-15.66,3.05,18.18
0.61,-0.73,-0.28,-34.32,17.07,41.91
0.53,-0.79,-0.31,-53.59,8.91,49.66
0.29,-0.75,-0.37,-64.0,11.57,61.81
0.11,-0.73,-0.42,-64.0,13.43,64.0
0.03,-0.71,-0.53,-59.01,-0.85,60.68
-0.15,-0.74,-0.64,-55.12,-23.61,45.3
-0.43,-0.73,-0.69,-40.0,-41.97,19.81
-0.67,-0.68,-0.75,-12.43,-44.67,-7.45
-0.8,-0.71,-0.81,6.59,-24.58,-31.44
-0.75,-0.76,-0.75,16.86,16.53,-44.11
-0.47,-0.75,-0.64,22.77,34.47,-52.99
-0.17,-0.75,-0.57,20.46,39.0,-49.42
0.13,-0.78,-0.52,12.97,24.03,-36.51
0.37,-0.78,-0.5,5.54,11.56,-16.51
0.5,-0.74,-0.45,-6.95,2.2,4.65
0.52,-0.73,-0.38,-24.01,3.09,26.19
0.5,-0.77,-0.37,-36.01,8.98,39.81
0.38,-0.8,-0.4,-50.18,6.59,47.51
0.16,-0.79,-0.43,-61.0,11.79,52.59
0.02,-0.76,-0.47,-64.0,1.09,50.49
-0.1,-0.72,-0.58,-53.3,-27.93,40.43
-0.28,-0.7,-0.74,-30.86,-52.83,19.08
