ax,ay,az,gx,gy,gz
-0.14,-0.95,-0.69,-10.76,-38.7,8.07
-0.49,-0.91,-0.63,-6.01,-17.31,-40.7
-0.48,-0.89,-0.61,-7.25,6.98,-57.37
-0.35,-0.77,-0.59,-7.99,24.45,-64.0
-0.02,-0.63,-0.58,-9.73,39.5,-41.35
0.5,-0.48,-0.49,-13.88,50.29,4.71
0.81,-0.32,-0.52,-14.03,29.52,45.02
0.73,-0.23,-0.57,-11.01,9.17,48.9
0.44,-0.3,-0.55,-6.79,-9.32,45.25
0.18,-0.52,-0.56,-16.56,-8.72,55.54
0.03,-0.76,-0.6,-17.4,-17.85,48.99
-0.1,-0.94,-0.69,-7.03,-39.37,31.33
-0.28,-1.07,-0.73,3.99,-58.33,-3.23
-0.52,-1.21,-0.7,-3.43,-46.27,-30.3
-0.56,-1.18,-0.67,-11.88,1.94,-46.93
-0.39,-0.94,-0.65,-5.18,20.38,-64.0
-0.22,-0.75,-0.72,-1.21,33.1,-64.0
0.07,-0.67,-0.68,-5.56,49.46,-44.88
0.46,-0.57,-0.51,-13.37,55.47,-6.26
0.75,-0.38,-0.47,-22.17,32.67,24.15
0.51,-0.24,-0.52,-26.92,-4.65,45.49
0.19,-0.38,-0.52,-30.55,-1.05,54.21
0.02,-0.6,-0.56,-33.84,2.4,56.3
-0.01,-0.79,-0.63,-24.22,-5.52,46.69
-0.13,-0.98,-0.68,-12.5,-37.16,20.08
-0.42,-1.21,-0.69,-17.98,-46.78,-12.14
-0.6,-1.19,-0.71,-14.3,-17.7,-28.68
-0.23,-0.79,-0.65,0.32,23.77,-60.64
-0.1,-0.7,-0.63,0.88,18.05,-60.05
0.73,-0.39,-0.47,-18.11,34.99,27.78
0.76,-0.28,-0.46,-24.84,15.04,46.46
0.58,-0.3,-0.49,-23.12,-4.79,57.43
0.29,-0.46,-0.51,-33.24,-14.06,63.09
0.11,-0.68,-0.55,-32.3,-19.17,64.0
-0.01,-0.87,-0.65,-14.1,-36.31,48.15
-0.26,-1.03,-0.69,-10.27,-56.99,16.08
-0.62,-1.18,-0.67,-12.23,-51.46,-16.36
-0.71,-1.15,-0.7,-7.62,-8.23,-35.89
-0.52,-0.99,-0.67,-5.7,15.84,-53.95
-0.3,-0.83,-0.66,-0.39,29.45,-64.0
0.38,-0.56,-0.61,-4.84,42.57,-14.44
0.59,-0.4,-0.51,-15.87,39.65,12.89
0.67,-0.3,-0.45,-26.36,38.11,37.64
0.61,-0.31,-0.45,-27.8,18.87,50.42
0.24,-0.74,-0.74,0.7,48.55,-53.72
0.48,-0.63,-0.62,-5.86,42.0,-25.59
0.62,-0.48,-0.52,-14.54,38.75,-0.83
0.7,-0.38,-0.48,-20.33,48.35,32.52
0.68,-0.33,-0.44,-29.01,41.57,45.69
0.48,-0.4,-0.42,-35.02,31.78,51.39
0.19,-0.57,-0.44,-45.92,28.08,57.88
-0.46,-1.02,-0.72,-9.02,-44.25,-19.38
-0.57,-1.01,-0.7,1.78,-11.01,-39.97
-0.42,-0.94,-0.68,8.56,17.81,-54.86
-0.23,-0.82,-0.66,11.53,27.95,-64.0
0.0,-0.76,-0.6,6.54,33.44,-57.88
0.34,-0.69,-0.56,3.52,30.11,-31.49
0.59,-0.55,-0.53,-3.13,24.42,-2.0
-0.07,-1.03,-0.72,-18.31,-59.15,17.75
-0.33,-1.11,-0.79,-7.94,-64.0,-18.18
-0.58,-1.08,-0.76,-2.76,-23.65,-40.44
-0.48,-0.95,-0.72,1.51,17.09,-58.29
-0.23,-0.79,-0.7,5.22,27.63,-64.0
-0.03,-0.73,-0.65,1.38,34.07,-60.68
0.33,-0.68,-0.59,-6.3,41.01,-29.16
0.66,-0.54,-0.5,-12.12,32.96,2.95
0.77,-0.37,-0.45,-26.57,15.8,24.19
0.72,-0.31,-0.43,-30.82,2.44,47.46
-0.52,-1.09,-0.76,-3.17,-64.0,-31.34
-0.65,-1.05,-0.7,2.93,-15.3,-50.47
-0.44,-0.9,-0.72,12.5,16.24,-64.0
-0.19,-0.79,-0.69,9.84,21.68,-64.0
0.09,-0.76,-0.62,2.32,31.98,-51.87
0.55,-0.67,-0.59,-0.96,40.14,-14.27
0.81,-0.48,-0.52,-12.89,14.22,8.12
0.77,-0.36,-0.46,-25.5,7.25,35.53
0.65,-0.36,-0.46,-29.04,0.12,48.23
0.36,-0.46,-0.48,-37.79,-2.92,49.49
0.07,-0.65,-0.49,-44.98,6.1,50.95
-0.02,-0.81,-0.51,-43.3,-11.87,46.28
-0.1,-0.94,-0.62,-26.12,-58.12,22.74
-0.29,-1.03,-0.78,-4.48,-64.0,-9.53
-0.57,-1.04,-0.78,3.09,-56.36,-41.25
-0.59,-0.97,-0.7,6.25,3.06,-57.77
-0.36,-0.83,-0.67,9.04,30.18,-64.0
-0.14,-0.77,-0.63,2.25,35.64,-64.0
0.25,-0.75,-0.59,-7.38,47.57,-35.2
0.68,-0.64,-0.56,-11.67,37.44,2.11
0.81,-0.44,-0.5,-22.72,10.01,21.1
0.71,-0.32,-0.45,-30.37,4.15,45.37
0.23,-0.49,-0.5,-38.81,-4.33,47.69
0.02,-0.68,-0.5,-45.51,10.5,50.75
-0.0,-0.83,-0.54,-42.94,-9.29,44.3
-0.09,-0.93,-0.66,-26.72,-50.1,23.96
-0.28,-1.0,-0.81,-3.09,-61.22,-8.03
-0.55,-1.03,-0.78,2.54,-46.7,-39.71
-0.58,-1.0,-0.71,6.52,10.28,-54.03
-0.35,-0.89,-0.69,10.02,25.13,-64.0
-0.13,-0.8,-0.64,4.97,28.08,-64.0
0.17,-0.77,-0.58,-3.9,40.84,-39.72
0.65,-0.66,-0.55,-6.68,42.44,-2.05
0.84,-0.46,-0.48,-17.28,22.69,23.9
0.75,-0.32,-0.42,-29.97,19.64,49.92
0.58,-0.32,-0.43,-35.77,4.88,51.72
0.26,-0.44,-0.48,-45.59,-1.69,53.46
0.05,-0.63,-0.53,-52.76,4.48,57.21
-0.01,-0.79,-0.58,-42.96,-27.17,45.57
-0.15,-0.9,-0.73,-18.21,-64.0,17.67
-0.43,-1.03,-0.83,1.62,-64.0,-17.49
-0.68,-1.09,-0.76,1.04,-27.26,-44.44
-0.57,-0.99,-0.69,3.24,33.84,-56.72
-0.26,-0.83,-0.66,4.83,47.18,-64.0
-0.01,-0.76,-0.62,-2.85,47.14,-58.46
0.35,-0.69,-0.58,-9.41,58.84,-13.95
0.79,-0.57,-0.53,-14.59,53.83,21.21
0.89,-0.35,-0.44,-28.49,31.33,41.02
0.7,-0.31,-0.42,-36.12,14.07,55.36
0.42,-0.36,-0.47,-41.61,-2.93,60.93
0.16,-0.52,-0.49,-51.69,-1.23,64.0
0.06,-0.7,-0.51,-45.07,-22.78,57.45
-0.07,-0.86,-0.67,-25.71,-43.86,38.11
-0.38,-0.98,-0.78,-16.6,-54.65,8.77
-0.67,-1.01,-0.75,-6.93,-40.56,-22.43
-0.6,-0.94,-0.76,2.32,15.52,-36.34
-0.33,-0.83,-0.7,4.66,37.0,-46.98
-0.04,-0.74,-0.65,3.17,51.61,-47.51
0.18,-0.7,-0.6,-3.39,49.5,-30.69
0.46,-0.67,-0.56,-11.78,43.79,-4.33
0.69,-0.61,-0.52,-20.58,36.04,25.29
0.76,-0.55,-0.47,-32.26,20.03,41.54
0.6,-0.56,-0.47,-40.56,2.96,51.13
0.33,-0.61,-0.51,-46.79,-5.31,56.77
0.12,-0.69,-0.55,-43.67,-24.74,49.78
-0.09,-0.81,-0.66,-28.64,-41.47,35.0
-0.36,-0.86,-0.78,-13.7,-51.55,3.8
-0.65,-0.85,-0.79,9.34,-36.1,-29.91
-0.73,-0.86,-0.72,7.68,3.51,-50.58
-0.51,-0.84,-0.62,9.66,31.13,-61.7
-0.18,-0.75,-0.59,8.25,52.88,-56.31
0.19,-0.66,-0.54,-2.1,54.67,-38.5
0.49,-0.62,-0.48,-12.45,35.08,-13.17
0.71,-0.56,-0.5,-20.69,14.93,14.1
0.81,-0.51,-0.52,-31.54,3.15,42.08
0.7,-0.51,-0.5,-39.59,-13.66,50.49
0.42,-0.59,-0.53,-45.72,-14.18,59.31
0.15,-0.66,-0.58,-44.16,-11.99,59.54
-0.09,-0.81,-0.68,-29.28,-36.08,34.94
-0.45,-0.89,-0.81,-8.58,-50.72,2.88
-0.72,-0.95,-0.82,6.67,-29.16,-33.09
-0.72,-0.95,-0.71,5.1,12.83,-52.58
-0.44,-0.9,-0.63,9.21,29.61,-64.0
-0.14,-0.83,-0.64,9.1,36.6,-64.0
0.21,-0.76,-0.64,4.4,45.72,-47.27
0.47,-0.67,-0.56,-4.6,25.58,-26.44
0.64,-0.56,-0.51,-15.2,31.82,7.55
0.78,-0.44,-0.46,-26.56,28.68,36.44
0.74,-0.38,-0.42,-38.69,8.01,47.4
0.48,-0.43,-0.46,-42.58,-3.9,56.0
0.2,-0.56,-0.52,-48.32,5.33,64.0
0.08,-0.69,-0.53,-48.35,1.21,61.67
-0.07,-0.79,-0.61,-35.66,-29.21,41.54
-0.32,-0.86,-0.75,-15.39,-52.0,12.62
-0.6,-0.91,-0.81,3.97,-43.61,-20.82
-0.71,-0.95,-0.75,9.7,-3.5,-46.07
-0.5,-0.92,-0.67,12.77,22.67,-60.5
-0.21,-0.86,-0.65,14.46,15.0,-64.0
0.05,-0.83,-0.67,7.35,26.75,-61.01
0.37,-0.77,-0.61,-0.33,33.91,-33.66
0.62,-0.63,-0.53,-9.47,22.96,-13.56
0.71,-0.5,-0.5,-19.55,32.49,22.24
0.79,-0.4,-0.49,-30.9,23.64,42.56
0.64,-0.43,-0.48,-38.07,6.82,51.49
0.31,-0.53,-0.51,-45.96,6.43,56.74
0.08,-0.65,-0.54,-49.63,4.64,57.32
-0.04,-0.76,-0.58,-40.23,-17.78,46.99
-0.21,-0.85,-0.72,-19.86,-48.65,19.24
-0.51,-0.89,-0.8,-1.24,-52.79,-13.6
-0.68,-0.92,-0.75,5.52,-12.03,-39.61
-0.55,-0.91,-0.69,9.81,21.53,-52.22
-0.25,-0.83,-0.66,10.26,28.51,-64.0
-0.01,-0.79,-0.66,8.0,31.94,-59.36
0.29,-0.77,-0.62,1.35,31.24,-41.14
0.55,-0.72,-0.57,-3.81,25.22,-17.98
0.7,-0.61,-0.52,-14.16,17.31,2.29
0.73,-0.52,-0.45,-25.69,13.81,28.44
0.68,-0.5,-0.43,-33.39,8.23,44.41
0.46,-0.55,-0.46,-42.3,3.19,47.98
0.17,-0.62,-0.49,-48.99,12.79,51.51
0.06,-0.68,-0.5,-53.73,1.06,48.79
0.01,-0.75,-0.57,-44.2,-35.09,38.51
-0.15,-0.82,-0.72,-26.4,-55.95,17.3
-0.37,-0.84,-0.83,-8.81,-60.45,-13.82
-0.65,-0.84,-0.84,5.1,-25.07,-39.22
-0.6,-0.83,-0.72,9.89,24.58,-51.68
-0.3,-0.79,-0.68,12.7,43.25,-62.37
-0.04,-0.77,-0.64,10.34,49.42,-53.7
0.27,-0.74,-0.59,2.74,49.21,-27.74
0.58,-0.66,-0.51,-3.19,38.26,3.6
0.77,-0.54,-0.44,-14.12,23.6,26.42
0.76,-0.49,-0.38,-27.02,7.44,41.92
0.56,-0.54,-0.4,-38.67,-4.13,48.42
0.28,-0.62,-0.46,-50.81,-0.87,53.05
0.1,-0.69,-0.49,-53.83,-5.5,52.17
0.0,-0.75,-0.58,-42.09,-35.74,36.59
-0.18,-0.8,-0.73,-21.83,-58.98,14.52
-0.43,-0.85,-0.81,-6.57,-60.25,-14.49
-0.59,-0.88,-0.8,0.56,-26.47,-34.94
-0.5,-0.84,-0.73,8.88,20.01,-45.7
-0.26,-0.77,-0.67,7.74,31.74,-55.78
0.01,-0.74,-0.66,7.41,36.07,-48.02
0.28,-0.74,-0.64,1.75,39.64,-28.29
0.54,-0.69,-0.57,-6.16,29.35,-4.9
0.68,-0.61,-0.47,-19.59,18.6,15.18
0.72,-0.57,-0.45,-31.35,8.74,33.77
0.59,-0.6,-0.46,-44.47,-3.65,43.61
0.35,-0.64,-0.49,-51.73,-3.41,50.85
0.16,-0.65,-0.53,-50.26,-10.27,50.29
-0.01,-0.72,-0.63,-38.74,-34.65,34.04
-0.27,-0.78,-0.72,-23.61,-47.49,11.83
-0.55,-0.84,-0.78,-9.94,-49.7,-20.15
-0.67,-0.85,-0.78,2.55,-14.05,-40.44
-0.48,-0.8,-0.71,10.55,13.41,-54.0
-0.22,-0.76,-0.67,14.97,20.91,-58.88
0.08,-0.75,-0.65,13.37,29.14,-45.37
0.35,-0.73,-0.6,5.22,28.09,-27.54
0.53,-0.64,-0.5,-6.09,15.69,-6.26
0.62,-0.56,-0.44,-17.66,13.96,19.18
0.67,-0.52,-0.44,-29.88,4.81,36.09
0.56,-0.54,-0.45,-40.25,-3.04,44.46
0.32,-0.6,-0.5,-48.42,-2.02,50.74
0.16,-0.64,-0.57,-47.03,-1.7,52.74
0.03,-0.71,-0.64,-36.04,-12.99,45.04
-0.14,-0.81,-0.7,-25.35,-42.31,20.58
-0.39,-0.91,-0.79,-8.24,-47.12,-2.62
-0.55,-0.93,-0.84,4.95,-34.59,-31.26
-0.57,-0.9,-0.78,10.48,0.32,-47.04
-0.37,-0.82,-0.71,16.15,15.69,-60.91
-0.15,-0.77,-0.71,17.76,34.94,-58.87
0.13,-0.74,-0.68,13.98,47.84,-43.79
0.41,-0.69,-0.53,-4.35,44.08,-20.82
0.59,-0.6,-0.43,-14.68,28.52,0.35
0.72,-0.52,-0.42,-27.94,15.76,23.81
0.67,-0.5,-0.42,-35.77,-5.29,38.24
0.46,-0.54,-0.47,-38.83,-13.57,45.2
0.22,-0.61,-0.53,-42.08,-9.33,52.02
0.07,-0.68,-0.55,-40.17,-6.79,51.92
-0.04,-0.77,-0.65,-28.25,-22.87,33.82
-0.28,-0.88,-0.72,-15.41,-37.29,8.26
-0.53,-0.94,-0.77,-4.29,-36.26,-23.44
-0.6,-0.91,-0.77,5.02,-2.05,-41.19
-0.41,-0.83,-0.71,9.68,10.04,-59.15
-0.16,-0.79,-0.68,10.84,15.94,-62.73
0.08,-0.79,-0.67,8.59,29.08,-51.18
0.35,-0.75,-0.61,1.61,28.68,-38.89
0.48,-0.66,-0.53,-6.16,16.55,-27.83
0.51,-0.59,-0.51,-14.79,13.79,-8.85
0.54,-0.54,-0.5,-21.78,17.58,18.51
0.57,-0.52,-0.46,-29.38,12.08,29.55
0.45,-0.56,-0.46,-33.06,6.57,35.47
0.27,-0.64,-0.5,-38.29,10.38,42.4
0.14,-0.7,-0.53,-44.25,9.22,44.86
0.06,-0.76,-0.54,-42.52,-3.88,36.36
-0.05,-0.83,-0.62,-31.93,-26.41,18.5
-0.28,-0.88,-0.73,-15.79,-43.03,-5.88
-0.45,-0.91,-0.77,-1.67,-34.7,-29.24
-0.46,-0.88,-0.74,4.89,-5.25,-44.15
-0.31,-0.81,-0.69,12.67,8.36,-59.77
-0.14,-0.76,-0.64,12.46,16.44,-63.1
0.07,-0.75,-0.59,6.48,29.47,-42.62
0.44,-0.69,-0.53,1.0,31.21,-21.23
0.64,-0.56,-0.49,-4.06,13.38,-6.22
0.66,-0.49,-0.44,-19.88,9.09,19.24
0.65,-0.49,-0.41,-28.95,4.62,37.69
0.54,-0.52,-0.44,-36.42,-5.25,40.4
0.29,-0.62,-0.5,-44.84,-8.76,44.03
0.09,-0.68,-0.54,-46.38,-12.84,45.18
-0.02,-0.79,-0.61,-36.95,-41.8,30.15
-0.2,-0.89,-0.72,-18.57,-61.29,6.11
-0.42,-0.96,-0.81,-1.77,-62.01,-23.97
-0.59,-0.98,-0.8,3.14,-21.76,-43.43
-0.5,-0.9,-0.73,11.73,13.31,-62.15
-0.27,-0.82,-0.71,16.47,21.82,-64.0
-0.03,-0.81,-0.7,12.23,28.4,-64.0
0.33,-0.76,-0.61,4.87,36.15,-34.65
0.68,-0.64,-0.54,0.03,18.84,-16.17
0.73,-0.49,-0.47,-15.95,2.11,5.84
0.65,-0.42,-0.41,-26.76,3.57,32.71
0.56,-0.43,-0.42,-34.47,-5.74,37.32
0.3,-0.51,-0.47,-39.16,-7.08,38.71
0.07,-0.64,-0.51,-43.71,-0.73,41.13
-0.01,-0.74,-0.53,-43.17,-6.18,38.9
-0.03,-0.85,-0.58,-34.7,-30.83,23.82
-0.14,-0.94,-0.71,-17.13,-51.94,2.79
-0.35,-0.96,-0.82,0.25,-49.51,-22.81
-0.48,-0.94,-0.76,8.59,-13.35,-43.64
-0.38,-0.89,-0.72,12.85,11.79,-64.0
-0.22,-0.86,-0.71,13.06,15.5,-64.0
-0.0,-0.84,-0.68,6.09,24.98,-61.47
0.39,-0.77,-0.59,-2.32,38.74,-30.82
0.7,-0.59,-0.55,-8.75,10.71,-20.16
0.69,-0.46,-0.48,-25.12,0.45,0.81
0.65,-0.42,-0.44,-35.32,0.62,27.43
0.58,-0.43,-0.44,-41.54,-2.89,38.15
0.36,-0.54,-0.48,-44.33,0.52,42.17
0.14,-0.68,-0.51,-45.92,13.91,48.12
0.09,-0.76,-0.5,-48.13,12.7,50.86
0.06,-0.86,-0.52,-45.42,-15.0,40.04
-0.07,-0.9,-0.67,-30.41,-37.4,20.87
-0.3,-0.85,-0.8,-10.4,-45.64,-7.28
-0.53,-0.81,-0.8,3.59,-28.55,-35.86
-0.5,-0.81,-0.73,14.67,0.84,-47.7
-0.28,-0.83,-0.68,16.99,8.67,-64.0
-0.13,-0.86,-0.63,12.26,3.75,-64.0
0.11,-0.83,-0.58,4.38,17.19,-52.73
0.48,-0.71,-0.52,-1.72,27.27,-22.5
0.72,-0.53,-0.47,-7.06,9.95,-4.78
0.74,-0.43,-0.45,-16.33,9.74,27.16
0.71,-0.42,-0.44,-20.85,-4.08,41.51
0.47,-0.51,-0.46,-28.03,-9.76,42.76
0.17,-0.65,-0.48,-37.93,-1.52,45.58
0.04,-0.75,-0.48,-43.62,2.39,47.5
0.0,-0.79,-0.5,-41.56,-13.72,40.79
-0.05,-0.8,-0.63,-23.87,-44.5,19.77
-0.23,-0.83,-0.77,-4.75,-62.31,-9.95
-0.48,-0.9,-0.84,4.63,-44.41,-33.28
-0.53,-0.94,-0.75,6.7,6.08,-46.2
-0.31,-0.86,-0.7,13.45,27.85,-58.69
-0.09,-0.78,-0.7,12.99,29.34,-63.42
0.09,-0.79,-0.67,7.47,20.36,-53.55
0.34,-0.79,-0.61,-0.68,22.66,-27.67
0.66,-0.64,-0.53,-7.83,21.73,-0.59
0.76,-0.5,-0.46,-19.38,10.61,15.55
0.65,-0.45,-0.4,-33.9,15.96,36.85
0.47,-0.5,-0.41,-40.81,14.84,42.38
0.25,-0.62,-0.48,-48.22,17.34,47.05
0.12,-0.72,-0.51,-52.17,19.52,49.62
0.11,-0.78,-0.56,-43.06,-5.91,43.18
0.02,-0.81,-0.69,-25.28,-44.69,23.9
-0.21,-0.88,-0.79,-7.99,-61.06,-6.72
-0.45,-0.91,-0.83,5.04,-40.56,-31.31
-0.49,-0.9,-0.74,6.04,9.41,-44.88
-0.29,-0.83,-0.65,10.03,31.99,-57.2
-0.07,-0.8,-0.64,13.09,23.77,-63.42
0.08,-0.8,-0.65,9.58,16.28,-52.83
0.34,-0.77,-0.6,2.9,26.83,-30.02
0.61,-0.66,-0.46,-7.83,25.11,-7.28
0.74,-0.52,-0.4,-17.39,20.24,14.3
0.68,-0.41,-0.41,-29.03,22.27,36.38
0.52,-0.46,-0.42,-37.93,15.69,42.69
0.28,-0.56,-0.45,-44.25,20.55,46.76
0.14,-0.66,-0.49,-51.08,28.81,51.58
0.15,-0.71,-0.52,-48.04,20.74,53.16
0.17,-0.75,-0.59,-35.21,-20.47,41.04
-0.03,-0.87,-0.71,-19.06,-48.07,21.2
-0.31,-0.96,-0.82,-3.28,-51.28,-10.98
-0.54,-0.96,-0.81,4.82,-26.8,-34.6
-0.44,-0.9,-0.73,9.88,12.95,-45.25
-0.17,-0.79,-0.66,13.85,12.9,-62.03
-0.07,-0.76,-0.64,10.91,2.95,-64.0
0.09,-0.79,-0.61,1.36,6.35,-49.75
0.48,-0.74,-0.53,-5.76,30.65,-10.28
0.86,-0.55,-0.45,-15.27,20.29,10.18
0.83,-0.42,-0.4,-31.36,18.39,42.27
0.64,-0.43,-0.41,-34.11,12.62,50.03
0.38,-0.52,-0.47,-40.83,8.14,54.82
0.17,-0.64,-0.47,-49.75,15.58,59.3
0.09,-0.72,-0.48,-51.71,8.66,57.19
0.07,-0.75,-0.57,-35.71,-30.27,39.79
-0.12,-0.84,-0.77,-15.12,-51.83,17.08
-0.42,-0.93,-0.82,-4.26,-63.5,-18.45
-0.63,-0.96,-0.79,9.14,-16.07,-36.57
-0.44,-0.91,-0.69,10.4,25.74,-51.68
-0.15,-0.84,-0.62,13.7,26.47,-64.0
0.0,-0.81,-0.64,8.2,19.16,-61.91
0.28,-0.79,-0.62,0.76,31.39,-34.18
0.65,-0.66,-0.49,-8.99,36.74,-0.91
0.87,-0.53,-0.38,-23.65,23.89,18.9
0.82,-0.44,-0.38,-33.38,13.34,42.17
0.59,-0.45,-0.44,-37.39,-1.4,51.17
0.27,-0.54,-0.5,-43.51,1.83,54.74
0.07,-0.63,-0.5,-50.21,17.64,60.14
0.06,-0.68,-0.49,-45.21,16.64,55.4
0.05,-0.76,-0.55,-35.85,-0.59,44.95
-0.12,-0.9,-0.62,-35.06,-25.22,32.9
-0.3,-0.92,-0.69,-19.35,-37.87,10.28
-0.42,-0.84,-0.82,4.66,-42.72,-17.98
-0.43,-0.8,-0.83,13.12,-20.21,-35.76
-0.28,-0.78,-0.72,18.67,-1.38,-48.03
-0.1,-0.76,-0.68,17.41,10.28,-53.57
0.05,-0.77,-0.68,13.23,13.86,-53.09
0.23,-0.75,-0.66,8.14,32.46,-30.19
0.52,-0.66,-0.57,-0.51,42.95,-3.75
0.71,-0.53,-0.45,-14.96,40.0,17.7
0.77,-0.52,-0.38,-29.27,30.4,36.6
0.66,-0.57,-0.39,-37.17,9.87,50.2
0.4,-0.66,-0.44,-47.53,-0.69,54.33
0.18,-0.77,-0.46,-54.33,-3.11,56.81
0.06,-0.82,-0.5,-51.87,-12.09,49.42
-0.1,-0.83,-0.61,-38.46,-36.87,24.4
-0.33,-0.84,-0.73,-23.16,-50.46,-3.07
-0.56,-0.86,-0.81,-9.67,-33.88,-25.12
-0.55,-0.83,-0.78,-0.24,8.41,-35.54
-0.28,-0.77,-0.69,6.65,27.5,-42.55
-0.02,-0.72,-0.65,7.02,28.01,-42.09
0.19,-0.7,-0.63,4.88,24.92,-29.76
0.38,-0.67,-0.56,-0.88,17.54,-10.01
0.54,-0.61,-0.48,-9.7,14.69,10.23
0.61,-0.58,-0.4,-23.37,5.82,28.32
0.54,-0.58,-0.38,-32.16,-4.34,39.57
0.37,-0.62,-0.42,-42.71,-9.2,50.04
0.22,-0.65,-0.47,-48.88,-7.57,54.59
0.1,-0.69,-0.52,-46.04,-10.48,47.71
-0.05,-0.77,-0.57,-42.65,-22.27,33.93
-0.22,-0.87,-0.69,-30.79,-32.48,15.11
-0.37,-0.86,-0.86,-11.78,-36.17,-11.36
-0.5,-0.84,-0.89,5.23,-17.22,-31.76
-0.43,-0.84,-0.82,15.35,9.2,-42.49
-0.18,-0.79,-0.74,19.34,18.98,-50.62
0.03,-0.77,-0.69,20.97,22.62,-53.27
0.17,-0.77,-0.64,13.45,13.19,-48.76
0.27,-0.73,-0.58,4.9,25.07,-24.96
0.51,-0.65,-0.52,-3.36,35.19,1.45
0.67,-0.58,-0.4,-19.94,29.99,20.38
0.67,-0.57,-0.33,-37.27,23.35,35.99
0.53,-0.61,-0.37,-49.32,18.53,49.46
0.38,-0.65,-0.42,-58.9,14.24,55.5
0.2,-0.68,-0.46,-64.0,1.93,59.32
0.13,-0.72,-0.52,-58.83,-12.56,55.24
-0.0,-0.75,-0.68,-42.64,-43.34,29.49
-0.36,-0.78,-0.81,-28.27,-63.32,-5.48
-0.7,-0.79,-0.88,-2.44,-45.7,-30.8
-0.73,-0.77,-0.89,11.29,0.21,-47.08
-0.47,-0.75,-0.78,21.58,28.89,-62.55
-0.17,-0.76,-0.68,21.67,42.27,-64.0
0.15,-0.79,-0.61,15.67,41.61,-53.84
0.39,-0.77,-0.56,7.35,30.62,-35.27
0.58,-0.7,-0.51,-0.94,27.3,-12.04
0.67,-0.64,-0.47,-8.64,15.21,5.79
0.67,-0.61,-0.41,-24.13,14.82,23.97
0.58,-0.66,-0.38,-36.04,11.82,35.97
0.38,-0.71,-0.43,-45.82,12.22,40.12
0.12,-0.71,-0.49,-51.29,14.4,39.94
-0.01,-0.69,-0.52,-50.9,1.88,32.13
-0.06,-0.71,-0.58,-41.48,-23.1,19.46
-0.07,-0.76,-0.69,-28.37,-35.69,8.08
-0.18,-0.77,-0.77,-13.51,-35.04,-7.34
-0.32,-0.75,-0.72,-2.58,-9.61,-17.83
-0.28,-0.75,-0.68,5.72,16.43,-26.08
-0.1,-0.75,-0.65,9.95,17.53,-31.93
0.06,-0.78,-0.63,8.5,12.55,-31.38
0.15,-0.8,-0.59,4.75,7.65,-26.91
0.24,-0.76,-0.56,0.0,7.77,-17.92
0.35,-0.69,-0.52,-6.12,7.27,-3.78
0.45,-0.63,-0.48,-16.33,8.03,12.15
0.5,-0.62,-0.45,-25.84,4.73,22.38
0.43,-0.64,-0.47,-36.75,4.73,30.71
0.32,-0.68,-0.52,-43.14,7.8,38.22
0.23,-0.7,-0.55,-45.99,6.25,41.28
0.16,-0.74,-0.59,-39.45,-11.2,36.49
0.04,-0.79,-0.68,-25.65,-25.66,25.22
-0.13,-0.86,-0.77,-14.35,-32.51,4.58
-0.34,-0.9,-0.8,0.06,-32.53,-19.91
-0.44,-0.87,-0.79,6.7,-10.12,-36.23
-0.37,-0.82,-0.74,15.13,5.27,-50.29
-0.24,-0.77,-0.67,19.16,15.71,-62.75
-0.11,-0.76,-0.62,16.74,18.51,-60.32
0.15,-0.72,-0.53,6.84,37.04,-36.3
0.48,-0.62,-0.42,-0.24,23.72,-16.85
0.64,-0.5,-0.38,-13.65,9.95,3.83
0.72,-0.45,-0.35,-28.08,12.13,41.12
0.71,-0.44,-0.35,-35.83,-3.54,51.87
0.48,-0.49,-0.42,-46.76,-8.04,57.57
0.2,-0.59,-0.49,-53.88,-4.79,63.43
0.09,-0.7,-0.53,-52.46,-20.22,60.27
0.01,-0.84,-0.62,-43.34,-46.14,44.68
-0.17,-0.91,-0.79,-27.72,-52.57,21.04
-0.44,-0.89,-0.87,-10.51,-52.46,-8.57
-0.61,-0.87,-0.88,6.57,-15.92,-32.82
-0.51,-0.87,-0.83,14.13,21.65,-46.89
-0.27,-0.84,-0.77,16.9,32.26,-58.73
-0.04,-0.82,-0.72,16.68,37.99,-59.47
0.21,-0.79,-0.68,15.29,34.1,-49.04
0.38,-0.73,-0.58,5.91,24.61,-34.69
0.55,-0.64,-0.45,-6.12,20.05,-8.69
0.64,-0.55,-0.39,-17.8,11.81,13.11
0.66,-0.51,-0.35,-30.72,11.55,37.06
0.54,-0.53,-0.34,-41.88,5.53,46.15
0.3,-0.6,-0.39,-55.62,7.72,51.82
0.16,-0.66,-0.42,-60.43,6.62,56.51
0.09,-0.73,-0.48,-59.21,-13.33,51.61
0.01,-0.79,-0.61,-49.48,-42.23,38.17
-0.17,-0.81,-0.76,-26.82,-53.52,19.74
-0.4,-0.83,-0.86,-6.61,-56.96,-13.22
-0.64,-0.86,-0.87,10.88,-27.46,-35.98
-0.59,-0.85,-0.79,18.06,15.23,-50.29
-0.33,-0.82,-0.71,22.42,22.56,-64.0
-0.11,-0.81,-0.69,22.46,35.51,-63.42
0.21,-0.78,-0.63,16.38,45.51,-45.54
0.47,-0.7,-0.54,6.68,30.58,-32.45
0.57,-0.62,-0.46,-5.22,14.6,-15.05
0.62,-0.56,-0.42,-17.91,13.47,15.53
0.7,-0.54,-0.41,-32.16,16.08,40.58
0.62,-0.56,-0.39,-44.96,10.04,48.65
0.37,-0.6,-0.41,-54.03,14.64,58.01
0.2,-0.65,-0.49,-56.78,8.97,62.27
0.06,-0.72,-0.55,-56.78,-17.86,49.76
-0.14,-0.8,-0.65,-40.19,-48.95,29.48
-0.33,-0.85,-0.81,-14.89,-57.33,1.31
-0.58,-0.89,-0.87,3.08,-40.74,-31.7
-0.67,-0.91,-0.75,7.64,6.57,-46.39
-0.43,-0.84,-0.7,15.45,30.99,-59.83
-0.15,-0.78,-0.7,19.1,33.1,-64.0
0.15,-0.75,-0.66,14.17,47.11,-45.46
0.45,-0.7,-0.54,5.18,35.94,-28.2
0.6,-0.62,-0.45,-7.65,15.54,-14.21
0.61,-0.56,-0.4,-17.92,5.17,10.16
0.63,-0.53,-0.4,-30.55,3.5,33.43
0.56,-0.55,-0.42,-38.7,-0.64,41.84
0.32,-0.61,-0.45,-47.14,5.27,45.93
0.13,-0.66,-0.5,-53.08,13.2,50.11
0.07,-0.73,-0.54,-52.42,6.41,45.63
0.02,-0.81,-0.63,-45.33,-17.97,30.24
-0.17,-0.85,-0.77,-27.32,-42.59,10.99
-0.39,-0.86,-0.86,-3.74,-43.41,-14.56
-0.52,-0.88,-0.86,11.75,-25.11,-38.15
-0.49,-0.9,-0.78,15.93,2.7,-51.58
-0.32,-0.86,-0.7,21.68,13.04,-64.0
-0.1,-0.79,-0.67,22.75,26.93,-63.84
0.2,-0.74,-0.59,14.18,46.62,-40.21
0.51,-0.65,-0.48,4.97,35.87,-25.49
0.6,-0.57,-0.4,-9.19,16.63,-11.35
0.63,-0.53,-0.39,-22.13,13.22,19.93
0.69,-0.53,-0.4,-32.39,3.39,37.82
0.55,-0.57,-0.41,-42.17,-3.08,45.37
0.27,-0.63,-0.44,-50.94,5.86,51.76
0.13,-0.66,-0.5,-53.3,6.48,52.76
0.06,-0.72,-0.56,-47.89,-11.29,44.17
-0.06,-0.81,-0.69,-36.18,-31.89,24.69
-0.25,-0.88,-0.76,-21.78,-43.38,4.18
-0.41,-0.9,-0.81,-6.1,-40.19,-20.85
-0.48,-0.9,-0.8,3.13,-15.19,-34.5
-0.36,-0.86,-0.72,10.11,7.84,-47.7
-0.17,-0.81,-0.69,15.23,10.54,-59.86
0.03,-0.78,-0.68,13.79,25.2,-51.42
0.29,-0.76,-0.6,8.37,30.78,-34.55
0.51,-0.69,-0.51,2.56,19.06,-21.65
0.58,-0.61,-0.45,-9.78,7.08,-1.83
0.59,-0.56,-0.39,-24.45,5.91,20.3
0.61,-0.55,-0.39,-30.09,-2.06,34.49
0.47,-0.57,-0.42,-39.25,-4.69,38.39
0.23,-0.62,-0.46,-48.14,6.0,44.73
0.14,-0.66,-0.48,-52.62,3.21,48.68
0.07,-0.71,-0.55,-46.06,-24.29,39.48
-0.09,-0.76,-0.71,-25.93,-49.86,19.21
-0.39,-0.83,-0.85,-4.4,-64.0,-16.92
-0.63,-0.9,-0.85,6.21,-36.97,-38.19
-0.6,-0.9,-0.77,14.43,4.78,-53.6
-0.37,-0.84,-0.71,21.28,15.96,-64.0
-0.1,-0.82,-0.69,21.85,20.91,-64.0
0.22,-0.83,-0.64,17.22,34.1,-47.68
0.51,-0.77,-0.54,10.89,12.61,-43.56
0.52,-0.7,-0.47,-2.27,-2.94,-28.11
0.54,-0.65,-0.45,-11.06,9.4,1.94
0.63,-0.56,-0.41,-25.92,7.12,20.96
0.55,-0.51,-0.39,-36.3,-0.88,26.15
0.31,-0.53,-0.45,-40.89,-4.19,26.56
0.04,-0.59,-0.52,-38.59,2.68,24.75
-0.1,-0.66,-0.59,-33.69,7.17,17.39
-0.15,-0.75,-0.62,-27.25,0.7,5.46
-0.16,-0.83,-0.65,-15.51,-16.12,-9.22
-0.17,-0.86,-0.72,-1.32,-19.47,-21.58
-0.15,-0.89,-0.74,13.79,-18.28,-37.66
-0.12,-0.9,-0.7,14.57,-12.21,-47.1
0.03,-0.92,-0.62,4.7,2.02,-41.01
0.28,-0.87,-0.54,-3.48,12.23,-27.79
0.47,-0.72,-0.53,-3.86,1.66,-23.56
0.41,-0.63,-0.52,-11.39,-6.67,-16.2
0.31,-0.6,-0.5,-17.23,-8.66,-6.56
0.3,-0.59,-0.51,-21.16,-8.74,1.52
0.28,-0.58,-0.51,-23.85,-12.4,4.21
0.22,-0.61,-0.53,-22.07,-7.97,9.44
0.17,-0.66,-0.53,-23.18,0.35,15.79
0.18,-0.71,-0.53,-24.72,9.54,20.72
0.21,-0.74,-0.54,-26.7,11.95,22.57
0.21,-0.76,-0.56,-27.81,6.51,23.56
0.16,-0.79,-0.58,-24.83,0.72,19.73
0.08,-0.84,-0.62,-21.33,-7.16,10.55
0.01,-0.89,-0.67,-15.19,-15.71,-1.89
-0.08,-0.91,-0.7,-5.96,-21.59,-17.22
-0.14,-0.9,-0.69,-0.31,-22.07,-36.81
-0.17,-0.9,-0.67,1.62,-16.1,-49.38
-0.1,-0.89,-0.63,1.8,-7.58,-51.02
0.12,-0.82,-0.57,-3.33,8.33,-36.53
0.45,-0.68,-0.5,-6.63,15.38,-15.32
0.59,-0.54,-0.45,-12.41,6.84,0.35
0.55,-0.47,-0.42,-23.94,5.62,20.32
0.46,-0.49,-0.43,-29.41,6.58,31.6
0.3,-0.55,-0.48,-35.73,7.14,33.11
0.14,-0.6,-0.53,-38.47,14.0,35.13
0.09,-0.64,-0.54,-40.25,12.83,35.99
0.1,-0.69,-0.57,-37.98,1.33,31.63
0.06,-0.78,-0.63,-27.67,-19.59,24.13
-0.04,-0.87,-0.75,-10.94,-31.48,6.48
-0.21,-0.94,-0.82,-0.52,-23.24,-14.09
-0.32,-0.97,-0.76,1.91,4.38,-28.22
-0.21,-0.93,-0.68,4.25,25.2,-36.26
-0.01,-0.87,-0.65,4.61,20.01,-44.13
0.09,-0.85,-0.61,1.72,4.14,-47.87
0.18,-0.85,-0.57,-4.43,-2.16,-39.23
0.39,-0.77,-0.54,-11.24,3.04,-17.62
0.59,-0.63,-0.47,-18.94,2.33,2.74
0.63,-0.49,-0.4,-29.02,1.62,21.4
0.54,-0.44,-0.4,-36.25,-0.61,34.21
0.35,-0.48,-0.47,-38.89,4.15,40.19
0.17,-0.56,-0.52,-42.51,15.19,43.81
0.1,-0.63,-0.48,-45.57,22.21,48.3
0.15,-0.71,-0.49,-41.64,9.62,47.41
0.11,-0.82,-0.62,-27.42,-17.11,34.06
-0.11,-0.9,-0.75,-17.52,-27.83,13.07
-0.39,-0.94,-0.77,-5.76,-22.41,-12.97
-0.46,-0.9,-0.76,3.04,4.12,-28.54
-0.22,-0.85,-0.71,6.23,18.76,-34.52
0.03,-0.82,-0.66,5.29,11.8,-42.17
0.14,-0.81,-0.63,1.52,3.15,-41.39
0.23,-0.79,-0.6,-5.51,7.53,-28.15
0.43,-0.71,-0.54,-13.05,16.25,-7.14
0.61,-0.59,-0.48,-21.01,20.72,15.38
0.67,-0.48,-0.44,-30.1,11.99,29.63
0.55,-0.48,-0.49,-35.79,7.64,42.99
0.33,-0.55,-0.55,-39.51,16.48,51.21
0.19,-0.61,-0.54,-42.01,30.39,58.36
0.17,-0.67,-0.53,-38.23,20.33,52.75
0.13,-0.76,-0.66,-26.95,7.3,46.55
-0.04,-0.85,-0.73,-22.26,-4.73,32.04
-0.34,-0.92,-0.69,-12.58,-19.2,2.77
-0.46,-0.93,-0.72,2.64,-13.94,-18.54
-0.36,-0.93,-0.7,3.49,0.69,-32.05
-0.2,-0.88,-0.63,5.35,1.03,-49.21
-0.1,-0.81,-0.62,7.71,1.44,-59.07
-0.0,-0.76,-0.62,3.94,10.65,-49.34
0.26,-0.7,-0.53,-7.62,18.1,-29.78
0.58,-0.6,-0.45,-13.7,22.93,-0.43
0.8,-0.46,-0.42,-25.88,15.07,22.67
0.74,-0.41,-0.47,-30.51,5.33,41.37
0.49,-0.47,-0.49,-34.24,9.28,50.65
0.25,-0.58,-0.53,-38.86,16.3,58.16
0.15,-0.67,-0.54,-40.5,18.56,60.56
0.15,-0.72,-0.62,-29.39,-2.79,54.06
0.05,-0.82,-0.72,-17.65,-18.0,43.8
-0.2,-0.92,-0.73,-11.33,-31.15,16.74
-0.46,-0.96,-0.74,2.21,-26.0,-11.41
-0.52,-0.94,-0.72,4.48,0.47,-31.89
-0.36,-0.92,-0.62,5.26,10.68,-46.82
-0.16,-0.88,-0.6,6.6,9.34,-61.93
-0.05,-0.85,-0.64,5.92,-5.53,-64.0
0.07,-0.8,-0.66,4.48,17.44,-50.81
0.37,-0.71,-0.59,0.12,21.53,-36.21
0.6,-0.59,-0.46,-10.12,17.7,-17.42
0.69,-0.52,-0.42,-20.23,17.72,10.37
0.72,-0.47,-0.42,-31.98,16.88,36.93
0.57,-0.48,-0.45,-36.65,5.12,39.0
0.31,-0.54,-0.46,-44.37,0.24,45.95
0.15,-0.62,-0.5,-48.08,1.17,51.01
0.12,-0.65,-0.55,-43.97,-22.86,42.6
0.02,-0.71,-0.64,-29.81,-42.53,32.03
-0.17,-0.83,-0.72,-20.54,-42.96,13.08
-0.39,-0.95,-0.71,-14.6,-23.45,-11.81
-0.42,-0.97,-0.71,-7.78,14.25,-23.43
-0.22,-0.92,-0.69,-2.47,29.02,-33.59
-0.07,-0.85,-0.67,5.99,18.39,-44.28
-0.02,-0.84,-0.67,10.63,1.76,-52.13
0.03,-0.87,-0.64,11.4,-18.12,-58.82
0.15,-0.83,-0.61,7.88,-9.17,-49.28
0.37,-0.69,-0.55,6.64,5.77,-28.88
0.51,-0.54,-0.45,-6.16,4.52,-14.87
0.54,-0.48,-0.38,-19.95,18.69,17.37
0.63,-0.46,-0.39,-30.56,15.14,34.72
0.54,-0.49,-0.43,-38.89,5.47,40.13
0.3,-0.57,-0.46,-47.12,11.19,47.57
0.21,-0.62,-0.5,-52.01,11.94,55.81
0.21,-0.67,-0.55,-50.27,-9.54,54.19
0.15,-0.75,-0.66,-32.44,-35.54,48.88
-0.01,-0.85,-0.75,-22.4,-44.57,31.08
-0.29,-0.94,-0.78,-15.68,-48.21,2.88
-0.53,-0.95,-0.8,-0.2,-19.18,-22.53
-0.5,-0.92,-0.76,2.22,20.63,-33.75
-0.28,-0.87,-0.66,9.26,30.6,-48.96
-0.13,-0.85,-0.62,8.96,16.54,-63.14
-0.05,-0.89,-0.6,4.59,4.49,-62.57
0.19,-0.85,-0.6,3.7,2.99,-49.84
0.45,-0.7,-0.57,1.97,10.06,-31.18
0.58,-0.54,-0.48,-7.05,4.75,-15.12
0.56,-0.47,-0.4,-20.19,8.02,7.75
0.56,-0.46,-0.41,-29.98,15.57,32.15
0.47,-0.5,-0.47,-37.01,11.43,36.18
0.28,-0.55,-0.49,-44.76,18.13,43.84
0.21,-0.59,-0.52,-48.73,17.5,51.47
0.24,-0.63,-0.57,-44.97,-7.39,52.19
0.17,-0.71,-0.67,-28.39,-29.21,49.65
0.0,-0.82,-0.76,-16.72,-37.66,32.4
-0.29,-0.94,-0.76,-9.88,-36.66,3.55
-0.49,-0.98,-0.76,1.28,-7.05,-18.07
-0.42,-0.97,-0.7,2.54,19.38,-32.39
-0.25,-0.92,-0.63,6.44,18.05,-52.02
-0.17,-0.91,-0.6,4.19,-3.38,-64.0
-0.07,-0.9,-0.6,2.58,-10.36,-64.0
0.23,-0.81,-0.62,5.62,12.24,-47.72
0.55,-0.64,-0.55,1.3,7.91,-36.66
0.56,-0.51,-0.43,-12.99,-1.15,-19.42
0.57,-0.46,-0.41,-20.51,16.64,16.63
0.66,-0.41,-0.43,-28.32,-2.71,28.03
0.42,-0.43,-0.44,-33.06,-10.09,31.42
0.15,-0.56,-0.46,-37.43,3.31,37.47
0.08,-0.61,-0.5,-43.87,6.17,41.36
0.13,-0.69,-0.52,-43.23,-11.38,40.53
0.11,-0.72,-0.6,-29.71,-40.59,35.87
0.01,-0.86,-0.75,-16.34,-48.96,23.08
-0.23,-0.98,-0.83,-8.09,-47.96,-6.83
-0.44,-1.01,-0.8,-3.23,-9.0,-27.99
-0.35,-0.96,-0.74,1.37,18.0,-42.95
-0.16,-0.89,-0.69,1.27,19.06,-58.29
-0.01,-0.88,-0.67,-2.48,3.24,-63.39
0.17,-0.86,-0.65,-6.81,9.87,-47.98
0.42,-0.76,-0.58,-8.77,13.5,-32.17
0.57,-0.63,-0.44,-20.8,-11.0,-25.02
0.51,-0.56,-0.41,-27.79,-14.08,-5.03
0.43,-0.51,-0.45,-33.75,-23.39,6.79
0.28,-0.5,-0.5,-33.88,-37.87,3.4
0.01,-0.56,-0.55,-30.57,-32.7,-2.63
-0.12,-0.63,-0.6,-22.39,-18.07,-6.16
-0.11,-0.68,-0.62,-16.38,-6.12,-9.33
-0.03,-0.72,-0.63,-13.14,2.64,-7.93
0.06,-0.76,-0.63,-11.96,6.0,-6.29
0.14,-0.77,-0.63,-11.86,6.0,-4.29
0.19,-0.77,-0.63,-11.6,5.21,-1.23
0.22,-0.77,-0.62,-13.91,2.58,-1.03
0.19,-0.78,-0.61,-17.31,3.84,-2.3
0.15,-0.77,-0.63,-18.75,2.03,-3.17
0.14,-0.74,-0.65,-16.26,0.81,-5.12
0.17,-0.74,-0.64,-16.65,-2.72,-8.94
0.16,-0.78,-0.63,-18.9,-6.63,-12.39
0.14,-0.79,-0.63,-18.34,-6.83,-12.27
0.13,-0.78,-0.64,-16.89,-6.78,-13.53
0.15,-0.76,-0.62,-15.3,-7.48,-13.52
0.16,-0.75,-0.62,-11.87,-4.58,-14.93
0.16,-0.73,-0.6,-9.59,0.83,-14.12
0.15,-0.71,-0.57,-13.08,4.22,-13.23
0.17,-0.69,-0.55,-15.4,1.32,-10.54
0.21,-0.66,-0.55,-15.04,-7.9,-6.41
0.22,-0.65,-0.55,-14.34,-13.39,-1.84
0.19,-0.65,-0.55,-17.55,-18.97,1.21
0.16,-0.67,-0.53,-20.04,-18.29,6.07
0.15,-0.67,-0.53,-21.71,-15.88,8.11
0.16,-0.66,-0.54,-22.43,-9.72,11.21
0.17,-0.66,-0.55,-22.16,1.16,17.14
0.2,-0.67,-0.57,-25.55,8.93,21.46
0.23,-0.69,-0.58,-26.78,11.44,28.85
0.25,-0.69,-0.61,-27.97,5.91,32.26
0.23,-0.7,-0.62,-27.26,-6.72,32.8
0.18,-0.73,-0.65,-24.77,-10.55,28.73
0.09,-0.77,-0.68,-22.67,-21.51,16.0
-0.07,-0.82,-0.7,-15.59,-23.08,-0.81
-0.2,-0.9,-0.73,-9.76,-15.59,-19.01
-0.17,-0.93,-0.71,-10.63,7.78,-22.78
-0.03,-0.87,-0.64,-9.98,11.82,-31.33
0.04,-0.77,-0.64,-4.06,6.79,-34.09
0.05,-0.69,-0.66,0.61,0.26,-35.93
0.08,-0.65,-0.63,-2.46,-1.55,-29.72
0.26,-0.61,-0.56,-10.26,21.32,-7.47
0.51,-0.53,-0.48,-19.07,25.25,14.34
0.58,-0.45,-0.46,-29.61,14.44,29.47
0.48,-0.46,-0.52,-29.77,5.43,44.1
0.31,-0.54,-0.57,-34.22,-2.36,48.81
0.21,-0.64,-0.58,-38.72,-4.05,52.3
0.15,-0.74,-0.62,-29.37,-9.44,43.88
-0.08,-0.87,-0.69,-23.16,-47.38,10.19
-0.44,-0.99,-0.78,-13.71,-39.3,-13.54
-0.52,-0.98,-0.81,-9.14,-11.43,-29.63
-0.32,-0.85,-0.72,-1.45,18.39,-41.15
-0.12,-0.73,-0.67,6.06,23.42,-49.67
-0.02,-0.72,-0.69,9.38,14.42,-51.91
0.08,-0.74,-0.65,5.02,5.43,-46.87
0.31,-0.72,-0.57,-5.55,15.29,-23.53
0.67,-0.59,-0.49,-11.88,33.37,14.69
0.82,-0.43,-0.43,-19.89,18.87,32.2
0.57,-0.41,-0.47,-23.3,-7.33,38.44
0.24,-0.53,-0.56,-26.29,-3.65,40.41
0.04,-0.67,-0.56,-33.67,8.3,34.85
0.02,-0.73,-0.53,-38.72,20.9,33.72
0.08,-0.76,-0.59,-33.88,5.98,31.07
0.05,-0.81,-0.68,-17.0,-25.84,16.76
-0.23,-0.92,-0.78,-3.66,-54.55,-13.57
-0.45,-0.99,-0.8,-1.11,-24.31,-29.52
-0.33,-0.88,-0.7,4.67,3.77,-47.93
-0.17,-0.74,-0.65,10.83,14.1,-55.51
-0.01,-0.72,-0.67,10.97,15.31,-48.99
0.17,-0.75,-0.62,1.36,16.73,-31.88
0.49,-0.69,-0.5,-14.3,42.18,1.27
0.81,-0.54,-0.4,-24.55,39.85,28.95
0.79,-0.41,-0.42,-29.28,4.47,36.45
0.46,-0.44,-0.55,-31.11,-11.34,46.68
0.16,-0.56,-0.59,-34.95,-6.6,46.93
0.05,-0.68,-0.55,-38.54,11.8,43.89
0.04,-0.7,-0.59,-30.99,7.49,38.02
-0.04,-0.8,-0.71,-9.25,-24.82,16.08
-0.34,-0.95,-0.77,-4.39,-44.46,-13.04
-0.51,-1.06,-0.76,-1.6,-7.04,-26.19
-0.3,-0.92,-0.66,1.76,12.32,-42.25
-0.09,-0.77,-0.62,8.35,15.54,-50.89
0.03,-0.75,-0.67,8.43,7.01,-47.71
0.18,-0.76,-0.63,-1.61,14.31,-31.18
0.47,-0.7,-0.51,-15.99,34.68,-3.15
0.78,-0.54,-0.41,-27.87,45.98,28.68
0.78,-0.41,-0.41,-33.22,15.33,36.97
0.45,-0.43,-0.53,-33.7,-2.81,48.4
0.19,-0.53,-0.57,-39.3,0.99,52.59
0.1,-0.62,-0.52,-41.44,14.91,51.22
0.1,-0.68,-0.53,-35.3,4.22,43.1
0.01,-0.79,-0.65,-20.56,-12.61,36.11
-0.2,-0.96,-0.73,-18.37,-37.85,11.63
-0.47,-1.01,-0.77,-4.46,-35.18,-17.34
-0.51,-0.92,-0.74,-2.0,-5.08,-36.36
-0.28,-0.8,-0.68,5.68,4.73,-49.19
-0.1,-0.75,-0.69,7.67,4.45,-56.74
0.04,-0.76,-0.72,7.26,9.25,-51.83
0.22,-0.73,-0.67,0.61,18.46,-38.21
0.46,-0.65,-0.57,-9.08,31.65,-13.13
0.69,-0.53,-0.47,-20.4,45.02,20.15
0.8,-0.45,-0.45,-25.79,25.86,37.97
0.57,-0.49,-0.48,-31.09,5.88,48.96
0.28,-0.62,-0.53,-38.97,0.98,51.73
0.11,-0.73,-0.52,-43.27,5.78,49.24
0.02,-0.77,-0.55,-38.06,-1.86,36.53
-0.17,-0.82,-0.66,-22.35,-31.7,15.08
-0.4,-0.91,-0.75,-6.46,-50.08,-13.74
-0.55,-0.95,-0.77,1.81,-20.81,-35.9
-0.44,-0.87,-0.68,5.51,2.33,-57.01
-0.22,-0.76,-0.66,12.0,18.42,-63.46
-0.0,-0.74,-0.67,10.5,25.58,-57.96
0.3,-0.72,-0.64,3.14,32.98,-38.24
0.57,-0.63,-0.52,-9.96,38.2,-8.66
0.79,-0.55,-0.44,-22.54,31.1,17.26
0.84,-0.44,-0.45,-28.44,14.44,38.65
0.62,-0.46,-0.49,-31.1,-4.68,45.44
0.28,-0.57,-0.53,-36.58,-2.4,47.88
0.06,-0.69,-0.53,-42.37,6.92,45.83
0.0,-0.76,-0.55,-39.41,3.66,38.04
-0.06,-0.79,-0.66,-22.8,-18.88,20.34
-0.25,-0.89,-0.75,-7.57,-39.57,-6.73
-0.46,-0.97,-0.77,-1.64,-20.08,-27.33
-0.39,-0.92,-0.71,5.12,6.79,-39.34
-0.17,-0.79,-0.62,9.71,15.22,-51.58
0.01,-0.74,-0.64,12.62,5.92,-54.3
0.16,-0.75,-0.64,6.83,12.93,-38.27
0.43,-0.71,-0.54,-6.67,26.52,-15.15
0.66,-0.59,-0.41,-20.72,24.47,8.48
0.76,-0.47,-0.42,-30.8,22.21,35.07
0.69,-0.44,-0.47,-34.57,2.74,47.46
0.42,-0.52,-0.52,-39.58,-2.46,52.74
0.21,-0.64,-0.55,-46.35,2.72,57.79
0.17,-0.72,-0.58,-44.12,13.57,55.79
0.11,-0.78,-0.65,-30.1,-2.33,39.69
-0.17,-0.94,-0.67,-28.9,-18.52,22.29
-0.42,-1.02,-0.77,-10.17,-23.41,-4.39
-0.55,-0.93,-0.82,-1.09,-11.84,-29.66
-0.41,-0.83,-0.72,6.24,15.2,-43.02
-0.19,-0.76,-0.66,11.03,15.94,-54.73
-0.05,-0.71,-0.68,11.79,19.4,-58.69
0.06,-0.7,-0.65,7.08,21.84,-50.49
0.32,-0.67,-0.55,-4.2,35.32,-26.17
0.66,-0.57,-0.45,-17.28,43.94,8.15
0.91,-0.47,-0.39,-30.1,32.71,37.25
0.83,-0.45,-0.41,-33.62,5.09,50.24
0.47,-0.53,-0.49,-39.94,-5.97,56.19
0.18,-0.65,-0.51,-48.98,-2.41,57.71
0.07,-0.72,-0.51,-48.7,-3.38,53.72
-0.01,-0.77,-0.62,-28.69,-37.94,34.05
-0.26,-0.86,-0.78,-10.28,-55.85,7.71
-0.61,-0.97,-0.84,3.11,-46.9,-26.75
-0.67,-0.95,-0.77,9.76,3.17,-43.4
-0.38,-0.84,-0.69,19.86,19.46,-64.0
-0.16,-0.8,-0.71,23.1,20.59,-64.0
0.07,-0.82,-0.67,12.89,26.24,-60.84
0.44,-0.79,-0.55,2.04,37.59,-30.15
0.76,-0.62,-0.46,-9.09,16.79,-15.02
0.76,-0.48,-0.4,-25.28,19.11,21.56
0.8,-0.43,-0.37,-35.34,18.7,47.49
0.66,-0.46,-0.44,-40.82,4.09,51.0
0.3,-0.56,-0.48,-49.43,11.57,56.58
0.13,-0.65,-0.5,-55.89,18.7,61.94
0.1,-0.72,-0.54,-46.33,-13.49,52.44
-0.0,-0.81,-0.7,-23.69,-39.12,37.53
-0.27,-0.88,-0.85,-7.74,-64.0,3.73
-0.61,-0.89,-0.88,10.55,-45.21,-28.87
-0.68,-0.87,-0.78,17.77,5.46,-45.75
-0.38,-0.83,-0.69,22.13,28.27,-62.13
-0.11,-0.8,-0.67,19.82,34.04,-64.0
0.16,-0.82,-0.63,7.68,38.24,-47.97
0.54,-0.78,-0.49,-6.85,42.16,-16.78
0.86,-0.66,-0.43,-14.49,27.38,5.15
0.91,-0.5,-0.39,-31.19,15.83,31.2
0.78,-0.51,-0.38,-40.22,3.89,47.05
0.51,-0.58,-0.45,-47.56,-3.92,51.06
0.19,-0.65,-0.5,-53.47,7.64,53.65
0.05,-0.68,-0.54,-48.98,3.1,48.49
-0.07,-0.71,-0.64,-29.79,-22.12,32.18
-0.26,-0.79,-0.76,-9.21,-44.1,6.53
-0.5,-0.87,-0.83,8.34,-44.34,-24.18
-0.59,-0.87,-0.77,15.37,-3.47,-40.48
-0.41,-0.8,-0.68,25.11,17.2,-55.84
-0.16,-0.75,-0.64,25.15,25.9,-61.67
0.06,-0.77,-0.61,14.67,27.11,-49.34
0.37,-0.78,-0.52,0.83,28.72,-28.48
0.73,-0.69,-0.42,-14.0,30.1,2.29
0.87,-0.58,-0.38,-30.73,18.48,24.01
0.84,-0.56,-0.38,-39.96,7.36,43.66
0.62,-0.62,-0.45,-49.66,-4.62,51.13
0.3,-0.7,-0.52,-56.92,3.51,55.51
0.12,-0.74,-0.54,-58.1,9.46,50.61
-0.02,-0.76,-0.63,-43.23,-8.02,36.52
-0.21,-0.82,-0.73,-25.38,-30.11,14.07
-0.44,-0.88,-0.81,-0.14,-38.39,-13.39
-0.56,-0.89,-0.8,9.76,-17.62,-32.55
-0.45,-0.86,-0.67,15.67,-2.2,-51.41
-0.25,-0.79,-0.63,17.44,3.54,-64.0
-0.03,-0.74,-0.64,11.15,8.22,-64.0
0.26,-0.72,-0.58,-0.87,26.11,-40.75
0.66,-0.62,-0.5,-10.81,33.96,-16.55
0.84,-0.5,-0.45,-24.1,23.66,8.01
0.84,-0.47,-0.45,-37.65,26.37,37.71
0.74,-0.53,-0.48,-42.65,11.79,50.66
0.43,-0.63,-0.52,-50.58,11.52,57.94
0.18,-0.7,-0.53,-54.79,20.97,63.17
0.09,-0.75,-0.53,-49.96,10.24,56.59
-0.04,-0.8,-0.64,-37.46,-16.05,36.59
-0.32,-0.86,-0.76,-23.08,-41.64,10.76
-0.56,-0.85,-0.86,-0.01,-36.5,-20.74
-0.58,-0.82,-0.79,7.8,-5.23,-39.34
-0.38,-0.81,-0.66,9.36,10.52,-59.47
-0.14,-0.81,-0.66,11.4,16.27,-64.0
0.08,-0.79,-0.67,7.39,20.83,-61.95
0.36,-0.76,-0.59,-2.92,24.12,-42.62
0.67,-0.67,-0.52,-11.65,32.58,-13.64
0.82,-0.56,-0.45,-24.83,20.73,5.81
0.82,-0.5,-0.41,-36.56,28.16,35.71
0.76,-0.53,-0.42,-45.52,17.64,49.14
0.48,-0.62,-0.46,-55.21,16.77,54.65
0.22,-0.68,-0.48,-61.21,29.01,62.71
0.11,-0.71,-0.48,-61.77,5.14,55.28
-0.04,-0.73,-0.6,-42.07,-37.89,36.14
-0.33,-0.76,-0.81,-13.03,-64.0,5.27
-0.64,-0.78,-0.91,7.42,-53.65,-30.37
-0.7,-0.79,-0.78,13.81,6.33,-47.89
-0.41,-0.76,-0.65,18.79,33.87,-63.88
-0.04,-0.73,-0.67,19.43,36.23,-64.0
0.23,-0.76,-0.66,12.39,32.7,-49.27
0.51,-0.76,-0.59,5.42,21.93,-32.56
0.71,-0.68,-0.53,-4.4,15.95,-8.09
0.83,-0.59,-0.45,-18.4,20.69,18.75
0.83,-0.55,-0.38,-31.18,16.49,34.96
0.64,-0.63,-0.38,-43.01,16.22,43.79
0.35,-0.76,-0.45,-57.19,22.7,50.23
0.2,-0.8,-0.48,-63.85,32.43,55.81
0.16,-0.77,-0.5,-63.29,1.21,44.67
0.05,-0.77,-0.61,-46.86,-38.71,31.0
-0.16,-0.76,-0.8,-18.75,-64.0,4.63
-0.45,-0.74,-0.92,6.47,-64.0,-33.48
-0.65,-0.78,-0.84,14.06,-19.79,-49.91
-0.5,-0.78,-0.69,18.29,15.42,-64.0
-0.21,-0.73,-0.66,22.89,27.81,-64.0
0.05,-0.73,-0.68,21.42,33.49,-64.0
0.38,-0.75,-0.58,11.8,30.55,-45.89
0.66,-0.72,-0.48,1.86,14.59,-29.48
0.79,-0.65,-0.45,-11.17,12.51,-5.56
0.82,-0.6,-0.4,-27.82,13.45,18.67
0.73,-0.61,-0.39,-39.7,10.2,30.86
0.5,-0.69,-0.47,-52.82,19.52,35.85
0.26,-0.74,-0.54,-60.85,37.68,42.5
0.17,-0.7,-0.56,-62.77,32.36,39.87
0.11,-0.67,-0.59,-54.13,-6.67,32.05
0.03,-0.7,-0.72,-37.69,-45.16,17.87
-0.16,-0.73,-0.87,-16.34,-64.0,-12.46
-0.42,-0.71,-0.89,-2.7,-47.04,-34.81
-0.46,-0.68,-0.76,1.64,-2.29,-46.68
-0.26,-0.66,-0.67,4.83,21.61,-60.74
-0.04,-0.67,-0.65,1.41,25.55,-61.37
0.2,-0.73,-0.59,-6.36,26.79,-44.01
0.55,-0.74,-0.5,-17.65,19.51,-20.97
0.8,-0.7,-0.42,-30.15,3.17,-0.2
0.88,-0.66,-0.4,-43.15,2.03,22.72
0.77,-0.66,-0.4,-57.23,2.41,37.4
0.53,-0.72,-0.44,-64.0,14.97,44.82
0.31,-0.72,-0.53,-64.0,25.18,47.8
0.16,-0.66,-0.59,-64.0,4.14,41.49
0.05,-0.62,-0.71,-52.62,-33.61,27.51
-0.12,-0.64,-0.86,-28.04,-62.53,-0.63
-0.39,-0.65,-0.98,-2.17,-60.61,-28.13
-0.57,-0.66,-0.89,4.33,-13.67,-45.01
-0.45,-0.67,-0.73,13.27,21.38,-58.37
-0.16,-0.67,-0.67,16.65,32.42,-64.0
0.16,-0.7,-0.66,14.28,37.6,-55.39
0.46,-0.73,-0.55,2.56,22.79,-36.82
0.7,-0.71,-0.43,-9.79,7.16,-18.08
0.84,-0.66,-0.4,-22.7,-0.49,5.57
0.86,-0.61,-0.41,-34.52,-4.72,20.53
0.69,-0.61,-0.42,-49.12,-3.16,31.16
0.43,-0.67,-0.49,-61.94,12.62,36.41
0.25,-0.65,-0.57,-64.0,26.29,42.27
0.22,-0.58,-0.63,-62.03,23.27,41.87
0.18,-0.6,-0.66,-53.35,-9.99,31.63
0.05,-0.68,-0.76,-41.52,-42.0,19.31
-0.13,-0.69,-0.9,-19.42,-64.0,-6.31
-0.35,-0.63,-0.97,4.2,-62.54,-35.03
-0.42,-0.62,-0.87,12.56,-29.29,-48.13
-0.26,-0.63,-0.75,16.29,-6.14,-60.37
-0.03,-0.64,-0.73,17.27,13.4,-58.61
0.21,-0.65,-0.7,14.21,28.22,-45.35
0.46,-0.62,-0.61,5.47,14.0,-32.94
0.58,-0.58,-0.55,-3.55,3.54,-11.36
0.71,-0.54,-0.54,-15.87,8.37,15.87
0.77,-0.54,-0.46,-35.9,4.93,30.44
0.64,-0.58,-0.44,-51.06,7.93,39.34
0.45,-0.62,-0.51,-63.81,17.82,49.95
0.34,-0.61,-0.58,-64.0,13.07,53.87
0.25,-0.6,-0.66,-61.65,-12.72,49.1
0.1,-0.63,-0.78,-47.29,-43.27,32.27
-0.12,-0.67,-0.89,-26.43,-64.0,4.35
-0.35,-0.71,-1.0,-2.04,-64.0,-23.87
-0.48,-0.72,-1.0,12.97,-19.74,-37.66
-0.37,-0.66,-0.86,23.5,17.23,-52.33
-0.11,-0.63,-0.77,26.28,30.23,-60.41
0.13,-0.69,-0.75,24.29,30.17,-51.58
0.42,-0.7,-0.68,13.09,28.07,-31.28
0.65,-0.63,-0.54,-0.85,12.54,-11.18
0.78,-0.54,-0.49,-13.55,6.85,9.96
0.78,-0.5,-0.45,-36.65,5.79,29.53
0.64,-0.53,-0.47,-51.01,8.75,40.78
0.42,-0.56,-0.54,-60.4,17.49,45.61
0.23,-0.54,-0.6,-63.82,24.43,50.06
0.18,-0.54,-0.65,-59.87,5.67,47.56
0.11,-0.6,-0.75,-43.83,-30.58,36.72
-0.03,-0.68,-0.89,-23.05,-57.91,17.64
-0.29,-0.71,-1.01,4.75,-64.0,-15.06
-0.51,-0.71,-0.98,16.63,-21.43,-32.38
-0.43,-0.69,-0.84,28.24,18.21,-46.55
-0.19,-0.64,-0.74,29.77,28.42,-59.49
0.04,-0.68,-0.72,23.72,20.86,-58.47
0.27,-0.74,-0.67,14.49,25.2,-35.92
0.58,-0.69,-0.57,5.03,11.77,-21.65
0.69,-0.59,-0.51,-7.61,-0.63,-8.83
0.7,-0.54,-0.47,-23.15,10.21,20.93
0.73,-0.53,-0.45,-39.32,10.46,35.85
0.62,-0.55,-0.5,-49.16,14.43,44.14
0.37,-0.57,-0.57,-55.3,23.53,48.79
0.23,-0.55,-0.63,-58.44,32.26,55.62
0.18,-0.56,-0.66,-50.73,6.19,47.41
0.1,-0.64,-0.74,-33.65,-25.78,38.76
-0.06,-0.72,-0.86,-15.07,-52.66,18.51
-0.27,-0.72,-0.95,5.91,-50.07,-4.79
-0.4,-0.7,-0.91,17.38,-20.21,-21.99
-0.34,-0.7,-0.78,24.92,8.27,-39.59
-0.17,-0.66,-0.72,26.19,13.47,-51.07
0.0,-0.67,-0.71,23.01,14.38,-50.89
0.22,-0.72,-0.66,13.82,16.18,-39.99
0.45,-0.7,-0.55,0.27,17.04,-21.45
0.65,-0.62,-0.48,-11.04,14.46,-0.73
0.74,-0.56,-0.47,-28.54,15.58,19.91
0.72,-0.57,-0.46,-42.24,18.61,40.33
0.58,-0.6,-0.48,-54.08,20.46,46.38
0.38,-0.62,-0.53,-64.0,26.23,51.19
0.23,-0.6,-0.61,-63.28,12.9,49.97
0.12,-0.61,-0.72,-51.25,-22.35,37.93
-0.05,-0.66,-0.85,-27.92,-56.37,19.51
-0.28,-0.69,-0.98,-4.35,-64.0,-7.73
-0.5,-0.69,-0.95,13.97,-34.45,-28.33
-0.5,-0.72,-0.81,21.51,11.62,-48.69
-0.29,-0.68,-0.74,27.32,26.15,-61.55
-0.04,-0.66,-0.72,25.75,26.79,-59.15
0.25,-0.71,-0.69,19.08,28.43,-44.37
0.5,-0.7,-0.59,8.25,16.15,-31.12
0.62,-0.62,-0.51,-3.22,-2.25,-20.08
0.66,-0.57,-0.5,-16.98,8.96,9.99
0.74,-0.56,-0.48,-34.83,13.21,28.32
0.66,-0.59,-0.46,-48.04,16.6,36.59
0.44,-0.64,-0.5,-58.08,28.02,43.79
0.3,-0.65,-0.57,-62.04,35.54,49.26
0.22,-0.63,-0.61,-60.48,16.09,46.84
0.11,-0.65,-0.7,-45.67,-33.98,30.58
-0.09,-0.68,-0.83,-22.84,-64.0,9.02
-0.32,-0.69,-0.98,1.86,-64.0,-21.44
-0.49,-0.7,-0.93,10.19,-30.58,-38.53
-0.45,-0.67,-0.79,18.59,11.24,-53.21
-0.26,-0.63,-0.75,22.49,27.22,-64.0
0.0,-0.64,-0.76,21.94,37.61,-58.78
0.3,-0.69,-0.7,15.97,28.56,-46.7
0.55,-0.69,-0.62,8.76,9.75,-34.83
0.66,-0.62,-0.57,-1.79,4.57,-14.13
0.71,-0.56,-0.51,-15.07,9.95,10.18
0.72,-0.53,-0.45,-30.63,16.79,28.68
0.62,-0.58,-0.46,-42.53,17.89,36.33
0.39,-0.65,-0.52,-54.58,23.76,42.0
0.25,-0.67,-0.55,-60.13,32.9,46.85
0.2,-0.68,-0.56,-63.85,18.58,44.39
0.15,-0.71,-0.61,-57.22,-16.53,32.05
0.01,-0.7,-0.79,-36.15,-53.28,14.65
-0.2,-0.65,-0.96,-11.94,-64.0,-15.09
-0.42,-0.64,-0.98,5.76,-44.21,-36.29
-0.42,-0.64,-0.85,18.19,-1.48,-49.98
-0.23,-0.63,-0.8,23.57,18.93,-62.82
-0.04,-0.66,-0.77,24.66,23.68,-64.0
0.22,-0.7,-0.7,16.19,28.88,-48.41
0.52,-0.67,-0.61,11.32,13.89,-31.8
0.71,-0.56,-0.57,0.96,4.73,-11.65
0.74,-0.47,-0.5,-11.47,0.74,10.74
0.71,-0.45,-0.42,-31.1,7.33,31.67
0.67,-0.52,-0.44,-41.73,6.35,41.43
0.51,-0.6,-0.51,-51.79,11.45,45.86
0.29,-0.66,-0.56,-62.92,26.43,52.87
0.21,-0.68,-0.54,-64.0,23.32,51.34
0.18,-0.72,-0.6,-60.11,-9.99,40.87
0.09,-0.74,-0.78,-40.3,-46.86,23.53
-0.14,-0.7,-0.99,-10.6,-64.0,-4.11
-0.4,-0.68,-1.04,11.86,-49.83,-32.18
-0.47,-0.7,-0.9,20.61,-0.98,-48.42
-0.3,-0.7,-0.81,23.89,22.28,-64.0
-0.08,-0.71,-0.77,24.48,31.88,-64.0
0.18,-0.71,-0.67,19.67,31.3,-55.94
0.52,-0.68,-0.59,14.37,19.54,-39.6
0.69,-0.6,-0.56,6.68,-0.9,-26.93
0.64,-0.53,-0.52,-3.63,-16.06,-16.14
0.54,-0.5,-0.49,-15.27,-6.66,4.17
0.5,-0.51,-0.47,-30.1,1.18,17.24
0.4,-0.55,-0.5,-35.68,-9.28,18.05
0.19,-0.57,-0.59,-34.34,-9.47,16.26
0.06,-0.58,-0.67,-29.68,-12.92,9.3
-0.0,-0.62,-0.71,-22.35,-19.61,2.0
-0.04,-0.66,-0.75,-9.23,-28.93,-7.55
-0.05,-0.69,-0.77,0.13,-23.79,-15.45
0.01,-0.71,-0.75,5.5,-10.55,-20.67
0.12,-0.73,-0.7,4.0,2.73,-19.87
0.27,-0.71,-0.67,2.59,9.86,-15.1
0.38,-0.66,-0.63,-3.81,13.87,-5.12
0.48,-0.63,-0.57,-14.06,16.9,7.18
0.52,-0.62,-0.53,-22.98,6.08,13.71
0.49,-0.62,-0.54,-32.29,-0.59,21.09
0.41,-0.68,-0.57,-37.96,0.88,27.62
0.35,-0.68,-0.61,-41.21,5.97,32.68
0.34,-0.66,-0.65,-43.28,11.59,38.18
0.35,-0.64,-0.67,-45.26,13.89,44.72
0.31,-0.65,-0.66,-45.18,2.29,42.23
0.19,-0.68,-0.69,-35.1,-15.99,33.38
0.03,-0.72,-0.83,-17.53,-38.82,10.91
-0.22,-0.74,-0.96,1.24,-49.93,-15.86
-0.37,-0.73,-0.92,14.09,-26.23,-31.33
-0.33,-0.71,-0.82,17.02,0.19,-45.81
-0.22,-0.66,-0.76,20.93,19.62,-59.0
-0.11,-0.63,-0.7,17.17,30.19,-56.84
0.22,-0.63,-0.56,2.92,37.9,-32.2
0.68,-0.59,-0.46,-7.84,40.01,8.22
1.02,-0.46,-0.4,-26.69,18.5,32.62
0.98,-0.4,-0.37,-38.16,-2.48,46.89
0.68,-0.46,-0.44,-44.47,-2.8,58.59
0.36,-0.58,-0.55,-58.07,15.67,64.0
0.17,-0.66,-0.55,-64.0,20.5,64.0
0.15,-0.68,-0.59,-58.43,-7.31,56.22
0.1,-0.69,-0.77,-40.67,-38.32,41.59
-0.11,-0.71,-0.9,-21.25,-63.68,16.38
-0.41,-0.72,-0.96,0.65,-62.83,-9.97
-0.52,-0.71,-0.96,16.66,-16.31,-24.46
-0.38,-0.71,-0.85,22.71,19.84,-42.58
-0.16,-0.68,-0.76,22.18,30.73,-54.37
0.08,-0.68,-0.73,14.76,40.13,-41.43
0.41,-0.7,-0.66,3.38,38.94,-21.71
0.65,-0.66,-0.56,-11.0,26.36,-0.71
0.8,-0.59,-0.5,-22.56,20.75,21.68
0.82,-0.56,-0.5,-33.59,12.94,40.4
0.6,-0.61,-0.53,-46.46,14.08,47.84
0.33,-0.64,-0.59,-52.78,25.49,52.39
0.16,-0.61,-0.66,-48.65,16.21,47.47
0.02,-0.59,-0.77,-34.41,-13.43,30.7
-0.14,-0.63,-0.83,-16.82,-35.41,13.18
-0.29,-0.67,-0.91,2.93,-35.1,-6.78
-0.4,-0.69,-0.88,12.04,-6.77,-21.9
-0.34,-0.69,-0.75,15.4,27.21,-31.95
-0.12,-0.66,-0.67,14.15,39.22,-32.01
0.17,-0.63,-0.62,8.0,45.02,-18.95
0.43,-0.61,-0.53,-4.4,34.42,-3.35
0.6,-0.59,-0.44,-20.32,18.09,14.04
0.67,-0.61,-0.43,-31.48,5.23,28.38
0.61,-0.63,-0.47,-42.07,-3.6,36.18
0.45,-0.65,-0.54,-50.39,-2.62,42.95
0.3,-0.64,-0.61,-49.45,-2.87,44.12
0.18,-0.64,-0.69,-44.75,-12.03,39.25
-0.01,-0.66,-0.79,-31.56,-35.34,22.44
-0.24,-0.64,-0.94,-4.95,-48.47,-3.09
-0.46,-0.66,-0.98,15.43,-35.69,-28.61
-0.5,-0.73,-0.86,21.9,1.21,-46.05
-0.32,-0.73,-0.76,24.71,11.49,-57.52
-0.06,-0.68,-0.73,22.06,15.88,-56.75
0.26,-0.67,-0.68,15.03,28.94,-34.62
0.58,-0.67,-0.55,-0.59,9.45,-21.28
0.68,-0.65,-0.49,-12.8,2.6,3.19
0.75,-0.61,-0.51,-23.56,12.36,29.59
0.73,-0.59,-0.44,-41.21,10.57,37.7
0.49,-0.64,-0.46,-56.06,15.31,45.52
0.29,-0.63,-0.54,-60.42,15.43,49.65
0.15,-0.58,-0.63,-54.12,-2.8,46.26
0.02,-0.59,-0.72,-41.83,-35.43,33.62
-0.18,-0.6,-0.84,-13.76,-56.73,9.11
-0.38,-0.61,-0.92,6.74,-49.97,-17.1
-0.49,-0.66,-0.86,10.32,-7.67,-24.95
-0.3,-0.71,-0.7,9.88,29.74,-26.92
0.05,-0.68,-0.62,9.25,36.45,-25.89
0.35,-0.66,-0.59,-1.31,28.85,-11.77
0.53,-0.7,-0.56,-13.39,17.33,5.36
0.64,-0.72,-0.52,-25.88,1.91,18.92
0.6,-0.69,-0.52,-35.01,-12.27,26.53
0.43,-0.65,-0.57,-40.28,-20.92,29.64
0.22,-0.59,-0.65,-39.09,-20.44,28.26
0.03,-0.57,-0.69,-36.28,-10.81,22.9
-0.07,-0.6,-0.71,-36.81,-4.21,16.75
-0.08,-0.61,-0.77,-26.42,2.55,13.28
-0.02,-0.61,-0.81,-19.34,4.64,7.88
-0.0,-0.63,-0.77,-14.8,12.71,4.35
0.01,-0.65,-0.73,-12.03,12.45,3.38
0.07,-0.67,-0.72,-10.63,11.92,5.64
0.14,-0.69,-0.71,-8.85,8.84,6.49
0.18,-0.71,-0.68,-12.65,4.88,4.55
0.17,-0.7,-0.66,-12.67,3.05,3.86
0.15,-0.65,-0.67,-13.06,2.31,5.62
0.15,-0.61,-0.7,-11.56,7.2,6.93
0.13,-0.6,-0.71,-11.06,11.61,4.73
0.11,-0.62,-0.68,-14.46,15.16,2.76
0.1,-0.64,-0.68,-15.74,12.99,0.66
0.12,-0.63,-0.7,-14.52,13.97,1.83
0.15,-0.62,-0.7,-13.15,12.22,0.4
0.13,-0.61,-0.69,-11.29,14.12,2.2
0.11,-0.61,-0.69,-11.13,18.21,2.71
0.11,-0.62,-0.68,-12.05,20.95,4.78
0.13,-0.64,-0.66,-14.27,16.29,7.36
0.19,-0.65,-0.63,-16.83,6.96,10.61
0.27,-0.66,-0.61,-18.82,2.72,16.84
0.29,-0.65,-0.62,-21.15,-0.78,21.09
0.21,-0.61,-0.63,-22.91,3.61,21.86
0.13,-0.59,-0.64,-24.3,12.36,26.57
0.12,-0.6,-0.65,-27.49,8.04,28.5
0.15,-0.62,-0.66,-27.82,-1.42,31.29
0.19,-0.63,-0.66,-28.26,-13.31,33.9
0.2,-0.63,-0.67,-26.46,-22.35,36.91
0.17,-0.61,-0.69,-22.58,-20.24,38.94
0.11,-0.61,-0.7,-19.72,-7.71,40.18
0.06,-0.63,-0.69,-17.6,-1.61,37.28
0.02,-0.67,-0.68,-19.57,7.95,36.0
0.02,-0.69,-0.67,-21.33,10.6,33.57
0.06,-0.69,-0.66,-25.39,0.97,31.87
0.12,-0.68,-0.65,-26.15,-4.12,36.79
0.17,-0.68,-0.66,-24.7,-10.26,36.26
0.13,-0.68,-0.66,-27.14,-8.78,33.83
0.04,-0.69,-0.67,-29.02,-3.49,30.6
-0.03,-0.7,-0.67,-30.98,0.88,27.27
-0.03,-0.7,-0.69,-30.01,2.7,25.82
-0.0,-0.7,-0.71,-30.62,1.21,24.68
0.01,-0.68,-0.72,-28.25,1.43,21.54
-0.0,-0.66,-0.73,-25.05,4.43,19.43
-0.04,-0.66,-0.73,-23.2,8.03,16.29
-0.06,-0.67,-0.74,-21.93,9.28,12.87
-0.05,-0.67,-0.74,-20.0,8.51,12.12
-0.03,-0.67,-0.73,-19.41,6.88,9.57
-0.02,-0.66,-0.73,-17.92,4.75,7.46
-0.03,-0.65,-0.73,-17.33,4.24,3.49
-0.03,-0.64,-0.72,-16.82,4.66,1.32
-0.03,-0.65,-0.73,-16.2,4.56,-0.47
-0.02,-0.64,-0.73,-15.16,6.33,-0.79
-0.01,-0.64,-0.73,-14.28,8.81,-2.53
-0.01,-0.63,-0.72,-14.81,9.98,-3.79
-0.0,-0.63,-0.71,-15.46,13.11,-4.72
0.02,-0.63,-0.71,-14.93,13.72,-3.6
0.04,-0.63,-0.71,-15.07,12.38,-3.11
0.05,-0.62,-0.7,-15.21,9.83,-2.08
0.05,-0.62,-0.7,-14.44,8.38,-2.12
0.04,-0.62,-0.7,-14.85,5.81,-1.55
0.04,-0.62,-0.7,-15.69,3.0,-1.99
0.05,-0.62,-0.7,-15.37,1.88,-0.68
0.05,-0.62,-0.69,-15.1,3.86,-2.0
0.03,-0.62,-0.7,-15.09,6.69,-2.97
0.01,-0.61,-0.7,-14.55,10.53,-2.5
0.02,-0.61,-0.7,-14.84,10.58,-2.7
0.03,-0.62,-0.69,-15.76,6.82,-2.51
0.05,-0.62,-0.69,-15.37,2.02,-2.48
0.05,-0.61,-0.71,-13.84,-1.95,-2.71
0.04,-0.6,-0.72,-12.86,0.08,-3.45
0.03,-0.6,-0.72,-12.8,4.76,-3.4
0.03,-0.61,-0.71,-14.35,9.06,-1.82
0.05,-0.63,-0.7,-14.8,11.35,-0.73
0.07,-0.62,-0.7,-14.39,10.67,-0.18
0.08,-0.61,-0.71,-13.81,8.08,-0.81
0.07,-0.6,-0.73,-13.39,7.1,0.36
0.06,-0.6,-0.73,-13.12,7.69,1.1
0.07,-0.61,-0.7,-15.08,9.24,3.23
0.1,-0.63,-0.69,-15.39,9.43,3.6
0.11,-0.63,-0.7,-15.07,7.46,4.68
0.1,-0.61,-0.72,-13.86,7.0,6.29
0.09,-0.6,-0.72,-14.53,6.86,5.87
0.07,-0.62,-0.71,-15.24,9.01,6.35
0.06,-0.63,-0.7,-15.38,9.27,7.01
0.07,-0.62,-0.71,-15.21,7.91,6.14
0.07,-0.62,-0.71,-13.77,3.21,7.22
0.06,-0.61,-0.71,-13.39,1.02,5.83
0.0,-0.61,-0.71,-13.34,2.13,5.28
0.0,-0.61,-0.72,-12.53,3.63,3.28
0.01,-0.62,-0.72,-12.39,6.53,3.56
0.03,-0.62,-0.71,-12.5,5.56,2.53
0.06,-0.63,-0.69,-14.29,3.84,2.96
0.07,-0.63,-0.68,-14.07,1.64,2.93
0.06,-0.62,-0.67,-14.91,2.79,2.0
0.04,-0.62,-0.68,-16.58,4.25,0.18
0.03,-0.62,-0.7,-16.06,5.09,0.79
0.03,-0.63,-0.7,-16.51,1.71,1.03
0.05,-0.64,-0.7,-16.66,-2.77,0.59
0.06,-0.64,-0.71,-13.98,-8.17,-1.35
0.05,-0.63,-0.72,-12.32,-11.9,-4.24
0.01,-0.64,-0.74,-10.15,-11.11,-6.7
-0.04,-0.66,-0.75,-6.54,-10.15,-12.04
-0.07,-0.67,-0.75,-3.74,-12.95,-17.14
-0.07,-0.69,-0.76,-0.51,-18.56,-24.4
-0.08,-0.7,-0.77,4.25,-25.14,-32.47
-0.09,-0.71,-0.78,9.88,-26.59,-40.48
-0.1,-0.7,-0.79,16.88,-23.92,-48.21
-0.1,-0.7,-0.8,23.16,-17.05,-55.45
-0.09,-0.7,-0.79,27.29,-10.66,-62.31
-0.07,-0.7,-0.77,30.26,-5.75,-64.0
-0.03,-0.7,-0.74,30.08,-4.65,-64.0
0.04,-0.7,-0.71,29.17,-3.1,-64.0
0.12,-0.68,-0.68,27.38,-2.65,-64.0
0.17,-0.67,-0.65,25.92,-0.39,-64.0
0.2,-0.64,-0.63,23.43,1.75,-63.55
0.23,-0.63,-0.62,21.84,3.03,-57.41
0.29,-0.63,-0.61,18.82,0.47,-49.05
0.34,-0.63,-0.57,12.44,-2.14,-33.47
0.48,-0.61,-0.49,-3.15,0.44,-11.21
0.55,-0.57,-0.51,15.41,-63.04,-26.12
0.24,-0.66,-0.61,7.67,-40.42,-23.75
0.07,-0.75,-0.62,1.33,-30.31,-18.45
0.03,-0.71,-0.61,3.04,-20.31,-25.74
0.07,-0.68,-0.6,5.2,-13.95,-24.77
0.15,-0.7,-0.61,5.76,-10.55,-27.66
0.14,-0.72,-0.62,6.55,0.44,-28.22
0.07,-0.71,-0.6,3.12,16.6,-30.95
0.06,-0.7,-0.56,0.27,21.53,-31.39
0.14,-0.68,-0.55,-0.06,4.8,-31.95
0.25,-0.67,-0.55,-1.27,-12.72,-24.72
0.34,-0.67,-0.57,1.17,-32.11,-19.0
0.36,-0.67,-0.58,4.15,-30.2,-11.07
0.29,-0.67,-0.55,2.54,-17.96,-10.58
0.18,-0.68,-0.52,-1.18,3.38,-10.5
0.13,-0.71,-0.51,-8.81,18.04,-7.01
0.21,-0.74,-0.5,-13.83,23.33,1.15
0.36,-0.73,-0.48,-21.44,17.53,14.88
0.48,-0.72,-0.47,-26.97,8.22,26.63
0.5,-0.71,-0.51,-29.71,-2.57,34.75
0.43,-0.69,-0.54,-34.33,-5.48,36.74
0.32,-0.7,-0.56,-37.83,-2.54,36.87
0.21,-0.74,-0.58,-36.25,-3.77,32.21
0.07,-0.8,-0.62,-31.36,-11.92,21.16
-0.01,-0.86,-0.67,-18.51,-25.48,4.94
-0.14,-0.89,-0.75,-3.82,-36.7,-13.68
-0.25,-0.87,-0.77,3.87,-24.37,-28.3
-0.24,-0.81,-0.68,11.85,-3.49,-47.19
-0.16,-0.75,-0.62,14.86,6.74,-58.54
-0.02,-0.71,-0.59,13.64,13.49,-55.65
0.24,-0.66,-0.55,10.77,35.35,-31.21
0.56,-0.56,-0.46,5.22,34.14,-15.24
0.7,-0.5,-0.38,-10.14,24.03,10.21
0.76,-0.53,-0.37,-24.64,20.32,36.57
0.72,-0.59,-0.39,-34.66,0.38,48.59
0.49,-0.67,-0.42,-47.35,-9.95,55.68
