ax,ay,az,gx,gy,gz
-0.36,-0.77,-0.47,2.47,18.63,18.11
-0.38,-0.98,-0.44,1.84,30.86,8.14
-0.32,-1.13,-0.47,-0.55,32.83,-3.06
-0.23,-1.12,-0.52,1.17,24.94,-6.42
-0.16,-1.0,-0.5,0.72,15.66,-11.42
-0.15,-1.0,-0.45,-5.96,2.6,-23.57
-0.2,-1.01,-0.4,-17.92,-3.38,-33.27
-0.24,-0.99,-0.29,-37.35,1.25,-32.15
-0.2,-0.9,-0.3,-45.37,2.99,-24.88
-0.13,-0.74,-0.39,-48.68,-6.75,-16.91
-0.09,-0.59,-0.41,-45.28,-24.34,-8.92
-0.04,-0.51,-0.48,-38.36,-37.91,2.05
-0.01,-0.46,-0.54,-33.02,-48.81,15.26
-0.0,-0.44,-0.56,-27.67,-42.29,28.74
-0.0,-0.41,-0.63,-10.22,-31.55,38.36
-0.06,-0.41,-0.63,-2.04,-30.5,43.53
-0.18,-0.53,-0.64,12.26,-14.91,42.83
-0.33,-0.69,-0.61,14.96,-5.92,25.7
-0.45,-0.88,-0.57,22.14,23.65,12.77
-0.44,-1.05,-0.55,23.21,50.47,1.51
-0.39,-1.17,-0.49,22.43,64.0,-9.75
-0.39,-1.17,-0.41,12.85,63.4,-30.12
-0.37,-1.12,-0.32,-2.33,61.01,-35.94
-0.21,-1.07,-0.32,-10.28,52.81,-33.06
-0.04,-0.95,-0.28,-31.52,26.34,-24.32
0.01,-0.84,-0.21,-51.86,-2.81,-7.15
0.07,-0.69,-0.26,-58.91,-31.6,8.32
0.05,-0.53,-0.36,-57.71,-64.0,13.72
-0.03,-0.43,-0.48,-48.73,-64.0,18.08
-0.12,-0.41,-0.63,-31.41,-64.0,17.52
-0.26,-0.44,-0.55,-28.72,-64.0,12.74
-0.29,-0.54,-0.68,2.47,10.66,25.6
-0.22,-0.59,-0.84,23.75,34.74,25.69
-0.29,-0.68,-0.71,18.93,53.43,22.06
-0.29,-0.81,-0.54,17.77,58.28,21.66
-0.23,-0.96,-0.44,19.73,53.77,14.89
-0.24,-1.06,-0.47,23.94,32.79,-6.33
-0.34,-1.12,-0.39,11.82,29.35,-18.83
-0.33,-1.12,-0.35,9.24,41.58,-21.72
-0.27,-1.02,-0.3,-9.82,42.92,-27.49
-0.23,-0.93,-0.2,-26.6,41.53,-21.01
-0.11,-0.85,-0.18,-44.45,19.84,-11.77
-0.01,-0.77,-0.21,-60.23,-27.71,-6.85
0.01,-0.68,-0.31,-64.0,-63.43,1.56
-0.01,-0.56,-0.46,-54.87,-64.0,7.22
-0.1,-0.47,-0.59,-42.36,-64.0,8.16
-0.3,-0.46,-0.68,-25.58,-47.76,1.22
-0.27,-0.5,-0.86,9.5,22.46,16.91
-0.17,-0.56,-0.9,25.55,56.78,18.21
-0.15,-0.69,-0.75,23.39,64.0,24.2
-0.14,-0.85,-0.59,21.52,64.0,27.15
-0.15,-0.95,-0.53,26.78,48.21,15.0
-0.3,-1.03,-0.42,18.41,34.85,-3.14
-0.36,-1.08,-0.42,26.18,41.67,-18.09
-0.38,-1.07,-0.32,6.52,41.91,-36.45
-0.41,-1.06,-0.14,-18.89,63.34,-35.54
-0.23,-1.0,-0.15,-30.49,64.0,-24.45
-0.02,-0.83,-0.18,-44.63,28.06,-13.04
0.09,-0.68,-0.2,-58.5,-30.09,-0.01
0.11,-0.57,-0.32,-60.15,-64.0,10.94
0.03,-0.46,-0.45,-50.09,-64.0,11.97
-0.1,-0.43,-0.58,-37.02,-64.0,11.44
-0.21,-0.45,-0.72,-12.65,-21.87,13.5
-0.29,-0.52,-0.74,-4.56,12.49,11.44
-0.24,-0.67,-0.78,11.93,52.29,20.2
-0.11,-0.79,-0.78,20.61,64.0,20.52
-0.04,-0.87,-0.69,20.94,63.08,23.74
-0.03,-0.97,-0.54,19.93,44.8,25.41
-0.1,-1.08,-0.52,31.89,29.36,7.84
-0.33,-1.15,-0.44,25.71,13.99,-25.97
-0.58,-1.19,-0.22,-4.14,41.03,-46.0
-0.52,-1.16,-0.14,-16.63,64.0,-45.48
-0.22,-1.0,-0.17,-27.56,64.0,-36.94
0.07,-0.82,-0.16,-48.48,24.69,-19.69
0.18,-0.7,-0.22,-63.4,-32.38,-0.54
0.17,-0.55,-0.32,-62.7,-64.0,9.59
0.05,-0.38,-0.47,-51.41,-64.0,9.88
-0.1,-0.32,-0.61,-38.76,-63.71,12.55
-0.18,-0.35,-0.74,-17.19,-22.77,15.43
-0.23,-0.45,-0.78,-6.07,12.01,19.64
-0.2,-0.64,-0.75,-0.44,47.66,26.82
-0.12,-0.79,-0.73,2.8,61.31,26.39
-0.02,-0.87,-0.67,12.69,59.49,34.32
0.05,-0.96,-0.59,23.69,35.54,36.49
-0.02,-1.13,-0.58,41.97,3.18,13.05
-0.35,-1.24,-0.36,16.48,2.98,-25.63
-0.63,-1.3,-0.13,-13.0,42.84,-39.44
-0.52,-1.19,-0.15,-25.23,64.0,-48.01
-0.2,-0.98,-0.15,-42.18,62.88,-41.2
0.07,-0.85,-0.19,-57.42,14.79,-25.31
0.18,-0.72,-0.27,-64.0,-50.32,-14.04
0.13,-0.56,-0.38,-63.81,-64.0,-5.91
0.0,-0.41,-0.49,-57.3,-64.0,-1.05
-0.06,-0.3,-0.67,-40.43,-46.74,13.21
-0.09,-0.26,-0.77,-19.84,-10.62,16.69
-0.12,-0.33,-0.79,-1.56,17.35,25.05
-0.14,-0.55,-0.73,2.19,36.87,28.22
-0.1,-0.8,-0.71,6.52,50.79,27.61
-0.01,-0.88,-0.66,10.58,51.22,34.47
0.04,-0.98,-0.54,16.34,31.29,37.68
-0.0,-1.11,-0.51,27.53,-3.46,22.73
-0.24,-1.21,-0.48,33.61,-1.57,-14.82
-0.56,-1.25,-0.21,-3.91,18.63,-41.96
-0.61,-1.22,-0.19,-15.26,64.0,-46.41
-0.28,-1.04,-0.25,-20.2,64.0,-43.78
0.05,-0.86,-0.26,-32.62,47.31,-30.11
0.19,-0.77,-0.26,-49.43,-17.01,-13.66
0.17,-0.65,-0.3,-61.66,-64.0,-5.76
0.07,-0.51,-0.4,-58.59,-64.0,-1.03
-0.06,-0.38,-0.47,-58.48,-64.0,5.22
-0.13,-0.34,-0.57,-50.83,-51.48,18.03
-0.11,-0.33,-0.71,-27.87,-14.53,25.99
-0.11,-0.39,-0.79,-14.68,8.52,30.85
-0.11,-0.57,-0.81,-5.71,25.68,34.11
-0.09,-0.73,-0.81,2.04,40.11,37.54
-0.05,-0.85,-0.77,16.95,42.32,39.5
-0.04,-0.97,-0.63,30.93,26.58,28.38
-0.2,-1.18,-0.55,37.08,20.14,-0.39
-0.47,-1.34,-0.28,7.71,29.85,-29.12
-0.56,-1.38,-0.18,-12.62,60.87,-41.24
-0.34,-1.17,-0.23,-15.45,64.0,-44.85
-0.04,-0.96,-0.25,-23.82,55.04,-39.31
0.12,-0.84,-0.25,-37.83,4.69,-27.0
0.16,-0.74,-0.25,-51.57,-46.67,-15.0
0.1,-0.58,-0.31,-58.06,-64.0,-8.6
-0.03,-0.43,-0.4,-57.89,-64.0,-5.68
-0.14,-0.32,-0.49,-55.33,-64.0,2.87
-0.14,-0.27,-0.66,-36.95,-23.79,15.75
-0.07,-0.26,-0.75,-18.83,-4.04,21.07
-0.02,-0.38,-0.8,-3.08,18.23,35.82
0.01,-0.59,-0.79,3.81,22.74,40.84
0.02,-0.77,-0.76,15.95,24.65,46.24
0.01,-0.92,-0.69,26.85,10.92,41.39
-0.07,-1.09,-0.61,37.79,-3.97,18.34
-0.31,-1.26,-0.47,31.37,5.89,-8.48
-0.57,-1.34,-0.27,1.65,33.73,-31.21
-0.53,-1.26,-0.26,-4.72,60.99,-46.13
-0.3,-1.09,-0.23,-17.49,64.0,-47.3
-0.03,-0.96,-0.25,-24.47,37.36,-37.42
0.13,-0.86,-0.25,-41.85,-13.99,-24.63
0.13,-0.7,-0.3,-52.02,-63.5,-15.77
0.06,-0.51,-0.42,-51.26,-64.0,-4.73
-0.02,-0.34,-0.49,-48.67,-64.0,2.67
-0.1,-0.26,-0.57,-43.69,-52.56,9.04
-0.12,-0.24,-0.69,-26.63,-17.44,18.5
-0.09,-0.29,-0.8,-6.69,8.03,24.45
-0.13,-0.47,-0.79,-2.25,21.3,25.99
-0.12,-0.71,-0.8,8.25,41.27,30.94
-0.06,-0.85,-0.74,15.13,49.64,33.81
-0.04,-0.99,-0.62,21.77,43.46,31.76
-0.04,-1.14,-0.57,33.94,24.29,18.87
-0.19,-1.26,-0.46,27.74,12.84,-8.9
-0.42,-1.33,-0.24,-0.24,20.96,-31.4
-0.5,-1.27,-0.18,-16.57,48.92,-45.96
-0.29,-1.09,-0.2,-24.54,55.82,-45.02
-0.03,-0.91,-0.22,-38.72,32.98,-34.48
0.14,-0.78,-0.24,-52.63,-17.04,-17.97
0.16,-0.63,-0.32,-60.09,-63.02,-6.24
0.1,-0.43,-0.44,-58.78,-64.0,-1.93
0.0,-0.3,-0.57,-52.05,-64.0,5.8
-0.07,-0.26,-0.72,-30.53,-40.54,12.48
-0.13,-0.29,-0.83,-9.92,-0.16,15.65
-0.13,-0.46,-0.88,4.1,40.02,22.35
-0.11,-0.67,-0.83,6.55,63.65,26.6
-0.06,-0.83,-0.73,9.63,64.0,32.09
0.03,-1.0,-0.61,19.39,52.22,33.73
-0.01,-1.14,-0.55,31.79,24.66,9.51
-0.2,-1.31,-0.34,12.05,14.87,-12.14
-0.41,-1.37,-0.18,-10.61,19.06,-35.33
-0.41,-1.24,-0.23,-15.87,38.64,-45.26
-0.23,-1.02,-0.23,-26.71,43.05,-45.22
-0.03,-0.88,-0.27,-33.62,29.27,-33.52
0.09,-0.77,-0.28,-43.86,-11.4,-20.27
0.11,-0.61,-0.32,-54.77,-51.75,-9.89
0.08,-0.41,-0.42,-54.53,-64.0,-0.62
0.01,-0.29,-0.55,-47.48,-64.0,4.88
-0.06,-0.24,-0.7,-33.49,-33.64,9.5
-0.1,-0.28,-0.8,-10.86,3.81,17.72
-0.09,-0.46,-0.82,-2.4,34.59,26.09
-0.04,-0.65,-0.8,4.24,47.72,30.77
0.0,-0.82,-0.73,12.05,50.45,34.75
0.01,-0.96,-0.63,21.36,35.65,24.98
-0.06,-1.16,-0.52,20.78,30.15,11.17
-0.19,-1.31,-0.39,11.46,26.97,-8.98
-0.31,-1.32,-0.31,-5.11,28.11,-27.15
-0.31,-1.19,-0.27,-15.13,38.34,-41.13
-0.18,-1.03,-0.27,-20.9,38.81,-41.54
-0.04,-0.93,-0.27,-29.61,16.3,-40.59
0.06,-0.85,-0.28,-37.5,-12.11,-32.34
0.08,-0.69,-0.34,-46.3,-49.44,-21.19
0.06,-0.54,-0.43,-47.27,-56.49,-11.18
0.06,-0.36,-0.54,-40.57,-51.44,-5.34
0.02,-0.25,-0.65,-33.02,-25.14,5.33
0.02,-0.26,-0.78,-16.09,4.46,16.77
0.0,-0.36,-0.8,-5.0,25.26,23.7
-0.01,-0.56,-0.73,-1.54,32.04,31.08
-0.0,-0.74,-0.66,-1.2,29.84,33.12
0.05,-0.88,-0.62,8.36,17.63,34.07
0.02,-1.02,-0.59,24.29,13.12,22.13
-0.18,-1.19,-0.41,12.05,9.34,0.71
-0.3,-1.32,-0.3,-1.28,23.56,-12.71
-0.33,-1.26,-0.24,-19.34,23.86,-31.34
-0.22,-1.1,-0.24,-28.29,28.23,-33.41
-0.03,-0.95,-0.27,-31.4,5.27,-34.5
0.08,-0.87,-0.31,-37.38,-26.66,-32.55
0.1,-0.8,-0.37,-37.73,-59.93,-26.51
0.06,-0.69,-0.43,-35.09,-64.0,-18.87
-0.0,-0.55,-0.42,-38.07,-64.0,-9.64
-0.01,-0.42,-0.44,-41.26,-47.63,2.02
0.0,-0.34,-0.5,-46.36,-41.47,9.46
0.02,-0.35,-0.64,-34.94,-23.3,23.41
0.08,-0.38,-0.74,-16.43,-20.84,28.15
0.08,-0.45,-0.78,-4.85,-12.87,39.15
-0.0,-0.62,-0.7,0.17,-11.51,40.27
-0.1,-0.78,-0.63,8.62,-1.79,38.64
-0.15,-0.94,-0.56,15.24,-2.27,30.52
-0.2,-1.1,-0.47,10.1,-4.25,14.79
-0.24,-1.2,-0.46,3.75,-12.27,0.81
-0.29,-1.18,-0.44,-7.0,-16.88,-17.3
-0.35,-1.08,-0.39,-14.09,-2.57,-27.04
-0.28,-1.02,-0.36,-19.5,1.79,-35.75
-0.14,-1.0,-0.36,-25.55,-14.21,-39.02
-0.09,-0.93,-0.38,-33.97,-43.07,-38.41
-0.05,-0.79,-0.49,-32.0,-45.89,-26.48
0.08,-0.55,-0.63,-18.83,-34.3,-13.73
0.08,-0.39,-0.61,-21.53,-34.78,-12.45
0.02,-0.36,-0.62,-28.84,-14.95,0.37
0.07,-0.42,-0.74,-25.63,5.26,18.84
0.08,-0.47,-0.82,-8.12,17.87,27.69
0.04,-0.49,-0.78,0.39,30.4,38.89
-0.05,-0.61,-0.64,3.44,29.71,40.37
-0.1,-0.83,-0.54,14.34,19.04,33.71
-0.12,-1.05,-0.46,20.19,-0.55,19.16
-0.21,-1.25,-0.34,10.72,-25.7,-3.91
-0.4,-1.28,-0.23,-4.78,-22.67,-26.39
-0.52,-1.19,-0.12,-29.45,-0.47,-44.16
-0.4,-1.07,-0.17,-38.76,13.74,-47.51
-0.15,-0.9,-0.3,-42.38,-1.79,-41.1
0.06,-0.74,-0.38,-43.96,-29.47,-26.0
0.13,-0.56,-0.47,-43.53,-61.53,-3.64
0.14,-0.41,-0.56,-38.03,-61.79,13.43
0.13,-0.29,-0.63,-36.09,-62.62,24.75
0.04,-0.26,-0.76,-18.0,-40.56,28.01
-0.07,-0.28,-0.83,0.61,-14.65,35.25
-0.18,-0.44,-0.79,11.6,17.82,32.91
-0.22,-0.71,-0.69,20.24,46.92,33.86
-0.19,-0.97,-0.58,22.05,45.29,31.85
-0.11,-1.21,-0.46,19.74,12.97,22.34
-0.16,-1.29,-0.37,14.66,-27.38,-5.37
-0.42,-1.26,-0.21,-5.8,-33.29,-34.72
-0.57,-1.22,-0.07,-31.86,-2.03,-48.83
-0.39,-1.14,-0.16,-38.87,14.63,-51.97
-0.12,-0.99,-0.3,-46.69,-4.33,-48.56
0.03,-0.81,-0.41,-50.23,-33.39,-34.46
0.09,-0.65,-0.52,-46.91,-45.39,-11.88
0.11,-0.47,-0.54,-43.82,-64.0,-3.44
0.06,-0.36,-0.62,-36.53,-63.16,4.05
0.05,-0.33,-0.73,-30.45,-41.48,21.42
-0.01,-0.34,-0.76,-18.63,-20.32,25.47
-0.15,-0.38,-0.72,-10.37,9.29,35.99
-0.21,-0.53,-0.68,-2.67,26.45,38.91
-0.22,-0.69,-0.6,4.67,22.17,33.43
-0.21,-0.89,-0.51,16.01,15.48,25.68
-0.22,-1.09,-0.39,9.31,-8.63,9.99
-0.29,-1.25,-0.28,-4.94,-23.12,-6.75
-0.36,-1.27,-0.24,-15.96,-23.13,-24.46
-0.4,-1.19,-0.24,-30.42,-7.32,-37.01
-0.34,-1.07,-0.3,-37.6,-10.79,-47.92
-0.24,-0.94,-0.39,-44.54,-19.7,-48.08
-0.09,-0.81,-0.51,-36.1,-12.05,-32.4
0.02,-0.64,-0.57,-31.85,-19.18,-23.31
-0.0,-0.51,-0.53,-37.67,-25.38,-7.44
0.02,-0.41,-0.58,-31.88,-24.01,11.62
0.04,-0.34,-0.64,-29.61,-32.27,20.63
-0.06,-0.35,-0.65,-20.65,-29.66,22.09
-0.17,-0.42,-0.62,-6.81,-12.12,27.51
-0.25,-0.57,-0.56,3.16,5.55,20.39
-0.31,-0.8,-0.52,9.44,25.5,11.24
-0.28,-0.99,-0.51,8.99,30.57,4.06
-0.2,-1.09,-0.48,1.73,24.1,0.65
-0.14,-1.07,-0.44,0.0,8.5,-4.59
-0.13,-1.0,-0.41,-0.88,-9.11,-12.38
-0.15,-0.98,-0.39,-7.92,-26.57,-22.67
-0.18,-1.02,-0.36,-22.15,-36.17,-27.08
-0.22,-0.98,-0.37,-25.61,-35.79,-25.51
-0.23,-0.8,-0.42,-24.2,-22.53,-20.1
-0.21,-0.62,-0.42,-26.95,-16.05,-12.74
-0.15,-0.49,-0.44,-28.16,-6.19,1.95
-0.03,-0.4,-0.5,-31.39,-17.24,24.75
0.02,-0.37,-0.52,-34.94,-30.83,34.44
-0.03,-0.38,-0.54,-23.09,-44.26,38.29
-0.09,-0.46,-0.61,-12.66,-38.96,42.06
-0.17,-0.62,-0.69,-3.71,-28.98,34.54
-0.25,-0.8,-0.7,9.99,-5.17,33.19
-0.29,-0.98,-0.69,24.55,9.95,21.85
-0.35,-1.14,-0.62,24.9,22.19,8.52
-0.42,-1.24,-0.47,15.01,36.17,-10.49
-0.5,-1.21,-0.37,6.11,47.18,-31.27
-0.51,-1.12,-0.26,-14.56,54.3,-46.35
-0.35,-1.04,-0.24,-23.54,51.42,-40.8
-0.12,-0.91,-0.26,-35.73,28.17,-28.16
-0.0,-0.75,-0.26,-45.32,-4.45,-8.87
0.0,-0.57,-0.29,-55.39,-36.94,4.2
-0.04,-0.41,-0.36,-50.52,-56.46,11.29
-0.08,-0.3,-0.51,-42.07,-49.09,21.69
-0.08,-0.27,-0.66,-17.12,-28.87,29.83
-0.1,-0.33,-0.76,3.14,-5.37,35.35
-0.13,-0.52,-0.72,10.28,10.51,36.12
-0.2,-0.75,-0.68,9.56,24.43,32.81
-0.27,-0.92,-0.62,16.2,36.63,26.64
-0.32,-1.08,-0.56,19.78,34.59,12.51
-0.37,-1.2,-0.47,21.12,28.83,-9.58
-0.44,-1.24,-0.38,16.12,36.75,-24.22
-0.4,-1.19,-0.35,16.11,49.82,-40.78
-0.34,-1.09,-0.21,-9.11,48.26,-48.82
-0.26,-1.02,-0.14,-29.26,41.22,-41.52
-0.09,-0.91,-0.13,-49.53,10.71,-26.35
-0.0,-0.74,-0.16,-64.0,-26.77,-9.29
0.01,-0.55,-0.26,-64.0,-53.53,4.59
-0.02,-0.36,-0.4,-62.9,-64.0,9.01
-0.11,-0.21,-0.56,-47.15,-64.0,11.25
-0.16,-0.2,-0.7,-19.57,-42.76,18.87
-0.15,-0.31,-0.81,4.65,-5.38,26.0
-0.14,-0.54,-0.83,18.55,16.96,27.9
-0.17,-0.77,-0.76,24.94,34.29,29.07
-0.2,-0.96,-0.63,26.4,32.07,23.92
-0.18,-1.14,-0.52,29.55,36.24,15.07
-0.27,-1.25,-0.38,16.53,15.36,-7.75
-0.41,-1.27,-0.28,5.06,17.83,-25.6
-0.41,-1.17,-0.26,0.0,25.29,-37.92
-0.3,-1.05,-0.22,-13.13,25.27,-43.27
-0.22,-0.97,-0.18,-32.37,12.61,-37.96
-0.11,-0.87,-0.18,-49.68,-14.92,-23.18
-0.05,-0.72,-0.23,-60.27,-45.11,-8.58
-0.05,-0.52,-0.35,-63.96,-64.0,4.76
-0.09,-0.35,-0.5,-53.54,-64.0,8.89
-0.14,-0.26,-0.61,-36.43,-57.48,16.46
-0.14,-0.27,-0.76,-12.49,-27.46,25.67
-0.16,-0.37,-0.84,6.5,-0.34,29.81
-0.19,-0.56,-0.83,18.05,20.24,30.56
-0.23,-0.76,-0.75,23.8,32.74,27.21
-0.25,-0.96,-0.63,26.63,40.61,20.46
-0.28,-1.13,-0.51,22.53,39.15,5.98
-0.37,-1.25,-0.36,8.53,34.54,-13.79
-0.43,-1.25,-0.29,-2.62,37.05,-26.47
-0.35,-1.12,-0.27,-10.98,43.29,-34.85
-0.25,-1.0,-0.25,-18.83,36.17,-34.69
-0.1,-0.91,-0.21,-31.23,13.87,-27.1
-0.05,-0.84,-0.18,-45.74,-17.14,-18.98
-0.05,-0.72,-0.21,-54.87,-42.93,-9.34
-0.08,-0.57,-0.29,-54.73,-57.49,0.44
-0.12,-0.42,-0.4,-50.63,-57.69,7.95
-0.1,-0.33,-0.56,-37.84,-43.02,21.35
-0.08,-0.3,-0.69,-14.41,-26.58,19.65
-0.08,-0.35,-0.78,7.17,-9.23,26.91
-0.12,-0.53,-0.77,18.35,9.97,25.58
-0.19,-0.76,-0.71,22.35,26.4,22.96
-0.21,-0.97,-0.61,21.65,29.73,20.9
-0.19,-1.1,-0.53,21.69,25.2,8.73
-0.24,-1.2,-0.42,17.11,16.38,-7.96
-0.36,-1.24,-0.32,5.27,20.6,-27.87
-0.41,-1.21,-0.24,-8.44,35.31,-38.03
-0.34,-1.12,-0.21,-20.74,40.3,-41.65
-0.18,-0.99,-0.23,-30.91,23.48,-32.76
-0.06,-0.88,-0.21,-44.02,-13.79,-17.83
-0.03,-0.73,-0.2,-56.19,-46.06,-5.7
-0.08,-0.53,-0.26,-61.47,-64.0,-0.47
-0.16,-0.39,-0.35,-54.66,-64.0,5.3
-0.14,-0.3,-0.53,-39.61,-38.34,22.07
-0.13,-0.28,-0.63,-17.81,-27.85,21.86
-0.13,-0.34,-0.7,1.41,-9.05,30.63
-0.11,-0.51,-0.74,11.7,-2.47,32.92
-0.14,-0.74,-0.7,17.3,8.69,28.01
-0.19,-0.93,-0.64,21.87,12.97,21.59
-0.25,-1.1,-0.56,18.35,21.0,12.53
-0.29,-1.22,-0.5,16.99,21.43,2.17
-0.41,-1.23,-0.39,5.76,21.85,-17.12
-0.49,-1.18,-0.29,-8.31,39.65,-29.0
-0.39,-1.1,-0.26,-14.48,47.07,-34.79
-0.26,-1.0,-0.21,-30.78,32.64,-35.09
-0.15,-0.92,-0.19,-45.34,0.69,-25.44
-0.11,-0.8,-0.19,-57.96,-37.06,-14.87
-0.1,-0.62,-0.25,-64.0,-55.16,-1.88
-0.09,-0.43,-0.38,-55.89,-57.01,8.5
-0.08,-0.26,-0.51,-46.17,-44.32,21.76
-0.03,-0.23,-0.65,-27.24,-28.47,31.43
-0.05,-0.29,-0.73,-1.27,-20.94,33.55
-0.14,-0.45,-0.75,10.15,-4.7,32.39
-0.22,-0.71,-0.73,17.64,11.03,28.85
-0.27,-0.91,-0.65,16.62,25.96,25.19
-0.29,-1.08,-0.55,18.29,28.3,16.75
-0.29,-1.2,-0.46,16.0,25.35,2.93
-0.37,-1.24,-0.38,10.28,17.13,-17.12
-0.52,-1.19,-0.29,-9.37,36.41,-34.34
-0.49,-1.1,-0.27,-12.91,52.88,-39.72
-0.33,-0.97,-0.25,-18.18,52.21,-38.71
-0.17,-0.89,-0.23,-34.2,28.95,-26.49
-0.09,-0.79,-0.2,-51.34,-12.27,-10.67
-0.09,-0.64,-0.2,-63.34,-43.11,-1.28
-0.13,-0.45,-0.29,-63.91,-64.0,1.02
-0.17,-0.33,-0.43,-57.19,-57.02,11.52
-0.12,-0.28,-0.64,-28.66,-27.74,22.39
-0.09,-0.27,-0.75,-1.82,-10.14,23.88
-0.1,-0.4,-0.79,12.49,2.66,31.25
-0.13,-0.64,-0.74,16.65,15.18,33.57
-0.2,-0.87,-0.65,17.79,21.12,27.32
-0.24,-1.02,-0.57,15.82,24.81,19.98
-0.26,-1.17,-0.5,12.33,24.79,8.64
-0.31,-1.24,-0.44,11.72,13.52,-9.16
-0.43,-1.22,-0.35,-2.15,18.84,-23.67
-0.47,-1.15,-0.32,-8.61,45.06,-32.25
-0.38,-1.02,-0.31,-14.12,57.1,-35.42
-0.25,-0.9,-0.27,-23.74,39.79,-29.93
-0.14,-0.82,-0.19,-41.15,7.97,-19.24
-0.1,-0.69,-0.15,-58.36,-38.5,-12.12
-0.12,-0.57,-0.22,-64.0,-60.49,-5.61
-0.14,-0.41,-0.38,-56.57,-64.0,-0.04
-0.16,-0.3,-0.58,-38.31,-41.09,12.47
-0.08,-0.27,-0.81,-2.33,-2.38,23.03
-0.07,-0.32,-0.85,19.98,16.73,27.43
-0.12,-0.52,-0.75,19.25,29.29,31.93
-0.17,-0.78,-0.64,12.67,36.0,31.13
-0.17,-0.97,-0.54,6.96,34.47,30.05
-0.17,-1.07,-0.51,10.79,22.47,20.85
-0.26,-1.15,-0.48,15.88,9.23,2.14
-0.39,-1.2,-0.4,14.04,14.6,-13.89
-0.51,-1.19,-0.35,9.29,32.07,-29.76
-0.55,-1.12,-0.23,-9.34,60.54,-40.05
-0.38,-1.01,-0.2,-15.91,64.0,-34.31
-0.15,-0.86,-0.18,-30.85,38.05,-23.88
-0.01,-0.74,-0.14,-58.27,-13.09,-7.82
0.03,-0.62,-0.2,-64.0,-53.68,3.81
0.0,-0.45,-0.35,-60.04,-64.0,7.04
-0.09,-0.31,-0.54,-46.63,-64.0,9.49
-0.22,-0.29,-0.64,-26.98,-45.4,6.28
-0.24,-0.37,-0.77,0.5,3.76,17.53
-0.16,-0.47,-0.84,16.89,27.0,23.06
-0.13,-0.71,-0.74,15.98,44.31,27.58
-0.09,-0.89,-0.61,12.83,45.88,34.09
-0.05,-1.05,-0.53,17.86,27.2,30.55
-0.09,-1.15,-0.44,11.64,-1.85,17.58
-0.25,-1.22,-0.42,19.4,-10.64,-8.21
-0.49,-1.19,-0.31,12.2,-2.62,-29.48
-0.61,-1.17,-0.2,-3.21,41.81,-39.7
-0.47,-1.11,-0.2,-8.68,64.0,-40.76
-0.21,-0.94,-0.22,-20.15,54.09,-28.29
-0.01,-0.78,-0.19,-44.25,13.82,-6.53
0.04,-0.63,-0.2,-63.38,-35.95,4.12
0.02,-0.44,-0.31,-62.87,-64.0,6.54
-0.04,-0.27,-0.49,-56.1,-64.0,14.09
-0.13,-0.22,-0.65,-38.92,-61.01,17.46
-0.21,-0.26,-0.75,-5.74,-25.93,17.85
-0.3,-0.41,-0.74,3.67,-3.22,15.83
-0.32,-0.7,-0.71,11.77,34.48,18.52
-0.25,-0.93,-0.64,14.53,50.31,19.28
-0.15,-1.12,-0.54,16.62,51.25,18.59
-0.09,-1.21,-0.48,14.86,25.45,12.34
-0.13,-1.23,-0.43,11.56,4.65,-0.5
-0.28,-1.19,-0.35,9.04,-6.09,-22.66
-0.49,-1.13,-0.26,-3.27,11.7,-35.26
-0.52,-1.08,-0.17,-17.7,35.53,-38.98
-0.36,-1.0,-0.14,-34.94,32.72,-37.3
-0.18,-0.85,-0.13,-60.85,1.98,-23.32
-0.06,-0.68,-0.22,-64.0,-27.61,-0.54
0.03,-0.43,-0.42,-64.0,-46.19,13.5
-0.0,-0.22,-0.61,-48.73,-51.51,18.08
-0.08,-0.13,-0.76,-28.6,-40.82,18.81
-0.17,-0.22,-0.8,-4.69,-9.05,20.32
-0.25,-0.46,-0.75,6.39,24.28,17.12
-0.26,-0.72,-0.69,3.29,49.76,23.65
-0.18,-0.93,-0.62,4.44,62.62,29.08
-0.1,-1.01,-0.52,10.25,58.34,27.92
-0.05,-1.11,-0.46,18.04,30.99,19.0
-0.09,-1.22,-0.42,22.06,3.65,3.14
-0.28,-1.26,-0.33,17.26,-5.85,-20.2
-0.51,-1.22,-0.22,-0.31,3.72,-40.03
-0.57,-1.14,-0.13,-18.55,33.34,-45.61
-0.4,-1.0,-0.12,-33.55,41.73,-41.28
-0.17,-0.81,-0.12,-57.35,13.86,-25.33
-0.02,-0.62,-0.22,-64.0,-24.08,-0.96
0.05,-0.41,-0.39,-64.0,-57.39,10.2
0.03,-0.21,-0.6,-49.82,-63.49,19.18
-0.03,-0.12,-0.76,-18.16,-47.27,19.68
-0.16,-0.18,-0.78,7.31,-21.09,16.12
-0.26,-0.43,-0.73,12.04,10.62,16.06
-0.25,-0.75,-0.72,7.25,41.62,25.94
-0.17,-0.92,-0.68,9.49,53.02,33.5
-0.08,-1.0,-0.59,16.66,54.51,32.99
-0.04,-1.11,-0.52,24.65,31.22,19.75
-0.15,-1.28,-0.46,27.13,-0.68,-6.31
-0.42,-1.36,-0.28,7.28,2.04,-30.85
-0.61,-1.31,-0.19,-11.36,35.31,-40.55
-0.49,-1.15,-0.21,-14.93,59.1,-46.38
-0.24,-0.96,-0.2,-28.62,45.94,-41.66
-0.06,-0.83,-0.17,-47.47,5.62,-24.32
-0.0,-0.68,-0.21,-64.0,-34.06,-8.55
0.01,-0.48,-0.33,-64.0,-53.32,6.8
0.0,-0.25,-0.49,-54.57,-56.96,13.91
-0.05,-0.12,-0.63,-40.27,-40.37,23.44
-0.1,-0.13,-0.73,-8.95,-19.83,23.97
-0.16,-0.3,-0.73,6.44,2.3,25.28
-0.22,-0.56,-0.69,6.61,17.16,27.5
-0.19,-0.8,-0.65,1.82,27.6,33.27
-0.11,-0.94,-0.61,7.77,28.57,38.25
-0.05,-1.06,-0.56,22.94,14.99,22.64
-0.14,-1.25,-0.5,24.12,-0.13,-3.04
-0.34,-1.43,-0.35,-1.85,4.33,-16.3
-0.5,-1.43,-0.3,-10.66,32.13,-29.9
-0.46,-1.22,-0.31,-10.36,53.67,-43.27
-0.32,-1.05,-0.27,-18.8,49.12,-47.75
-0.11,-0.97,-0.22,-32.41,19.31,-37.6
-0.01,-0.86,-0.22,-44.16,-15.38,-24.42
-0.01,-0.64,-0.21,-63.9,-51.67,-10.44
-0.05,-0.41,-0.28,-64.0,-61.93,4.51
-0.06,-0.18,-0.47,-53.23,-55.25,14.62
-0.1,-0.06,-0.63,-35.75,-37.03,19.46
-0.12,-0.1,-0.75,-4.65,-18.2,17.73
-0.14,-0.29,-0.77,10.56,-4.38,21.26
-0.18,-0.6,-0.74,17.54,8.34,21.4
-0.17,-0.88,-0.69,22.55,27.54,24.46
-0.12,-1.09,-0.6,25.71,31.54,25.02
-0.11,-1.27,-0.51,27.16,19.34,10.79
-0.22,-1.36,-0.42,20.48,8.3,-12.12
-0.44,-1.35,-0.29,-0.23,7.81,-30.3
-0.53,-1.25,-0.26,-8.17,34.61,-43.2
-0.42,-1.07,-0.23,-14.83,40.07,-48.82
-0.24,-0.95,-0.22,-26.11,28.33,-40.34
-0.07,-0.83,-0.23,-39.33,-5.91,-25.65
-0.03,-0.65,-0.27,-52.03,-34.63,-9.55
-0.03,-0.44,-0.34,-57.17,-48.46,6.6
-0.02,-0.24,-0.47,-51.49,-49.8,18.64
-0.05,-0.13,-0.58,-45.0,-43.57,25.17
-0.1,-0.16,-0.69,-17.64,-26.67,19.89
-0.14,-0.33,-0.75,0.81,-6.16,23.16
-0.17,-0.64,-0.79,10.58,10.48,22.59
-0.18,-0.89,-0.74,18.2,34.08,23.1
-0.15,-1.09,-0.63,24.68,49.99,21.77
-0.11,-1.26,-0.52,27.65,46.49,12.7
-0.17,-1.38,-0.4,18.49,24.05,-9.24
-0.34,-1.38,-0.27,-1.2,18.13,-25.46
-0.45,-1.27,-0.22,-11.27,31.19,-40.36
-0.4,-1.1,-0.21,-13.61,39.13,-47.63
-0.23,-0.95,-0.19,-26.61,23.39,-45.17
-0.11,-0.84,-0.16,-44.96,-1.72,-28.39
-0.04,-0.66,-0.18,-62.28,-35.01,-12.89
-0.01,-0.45,-0.28,-64.0,-51.64,5.71
0.02,-0.2,-0.46,-53.89,-53.36,18.91
-0.0,-0.07,-0.63,-43.4,-43.48,28.25
-0.06,-0.09,-0.73,-9.94,-25.83,24.3
-0.11,-0.26,-0.77,6.61,-9.79,23.89
-0.18,-0.6,-0.77,8.02,11.11,22.65
-0.17,-0.88,-0.74,12.07,35.4,29.69
-0.13,-1.06,-0.66,19.07,44.89,31.42
-0.09,-1.24,-0.55,32.71,37.27,15.18
-0.17,-1.41,-0.42,24.97,24.94,-2.82
-0.35,-1.46,-0.26,-1.68,16.63,-19.23
-0.47,-1.32,-0.25,-6.59,27.93,-39.27
-0.43,-1.1,-0.24,-10.74,41.89,-46.64
-0.3,-0.96,-0.21,-20.73,39.96,-43.02
-0.12,-0.84,-0.15,-42.48,13.78,-31.21
-0.01,-0.7,-0.16,-62.78,-23.35,-13.32
0.03,-0.48,-0.25,-64.0,-52.84,3.02
0.04,-0.27,-0.41,-64.0,-61.42,19.82
0.03,-0.12,-0.61,-48.4,-51.53,28.24
-0.03,-0.11,-0.73,-17.22,-41.56,20.9
-0.12,-0.24,-0.79,4.95,-20.55,21.74
-0.17,-0.56,-0.8,13.44,9.15,19.49
-0.19,-0.82,-0.75,14.96,27.18,21.81
-0.18,-1.04,-0.65,17.66,53.79,24.81
-0.11,-1.19,-0.56,22.78,49.84,15.16
-0.12,-1.34,-0.46,20.18,40.54,-1.16
-0.21,-1.41,-0.34,4.48,20.37,-12.48
-0.33,-1.33,-0.31,-0.0,17.95,-29.21
-0.4,-1.16,-0.25,-7.5,29.07,-43.3
-0.35,-1.01,-0.24,-12.01,37.65,-47.59
-0.21,-0.85,-0.2,-24.93,24.14,-40.13
-0.08,-0.74,-0.15,-50.09,1.0,-26.26
0.01,-0.54,-0.19,-64.0,-29.35,-5.34
0.07,-0.35,-0.31,-64.0,-49.91,15.09
0.09,-0.16,-0.52,-58.35,-53.83,32.06
0.05,-0.09,-0.72,-27.54,-45.03,32.27
-0.08,-0.15,-0.78,3.39,-33.41,22.24
-0.2,-0.41,-0.77,14.04,-0.57,20.94
-0.23,-0.78,-0.75,21.11,26.94,21.13
-0.21,-1.05,-0.65,21.37,53.65,22.31
-0.14,-1.26,-0.54,22.55,48.09,16.82
-0.13,-1.36,-0.49,22.38,39.13,-2.64
-0.24,-1.37,-0.34,4.86,25.04,-14.05
-0.32,-1.29,-0.31,5.02,27.56,-30.58
-0.35,-1.16,-0.25,-5.73,33.01,-44.46
-0.3,-1.07,-0.23,-13.18,37.23,-45.67
-0.17,-0.96,-0.22,-24.68,19.18,-40.06
-0.07,-0.79,-0.21,-40.97,-4.73,-24.98
-0.02,-0.59,-0.21,-58.59,-31.18,-11.22
0.01,-0.38,-0.28,-64.0,-44.39,4.11
0.04,-0.19,-0.45,-63.24,-44.64,23.13
0.04,-0.13,-0.66,-47.49,-30.87,31.97
0.02,-0.16,-0.8,-9.91,-21.28,24.65
-0.08,-0.36,-0.8,3.91,-4.0,26.48
-0.17,-0.68,-0.77,9.27,23.36,26.12
-0.14,-0.96,-0.72,19.29,46.97,28.66
-0.11,-1.15,-0.59,22.83,41.59,21.01
-0.14,-1.34,-0.47,25.17,41.75,0.34
-0.23,-1.43,-0.33,8.73,33.51,-10.74
-0.32,-1.36,-0.29,-1.59,33.8,-35.12
-0.37,-1.19,-0.26,-11.28,46.46,-45.33
-0.27,-1.03,-0.26,-13.8,52.08,-46.59
-0.12,-0.94,-0.24,-27.14,32.5,-39.36
0.01,-0.82,-0.2,-47.41,-5.14,-25.37
0.05,-0.67,-0.23,-60.35,-34.6,-11.12
0.04,-0.45,-0.36,-55.59,-50.55,-3.44
0.0,-0.26,-0.49,-47.03,-45.29,3.84
-0.03,-0.2,-0.66,-35.21,-19.37,14.38
-0.03,-0.28,-0.77,-12.78,4.68,16.46
-0.04,-0.44,-0.77,-0.97,24.12,20.73
-0.04,-0.64,-0.73,1.11,35.54,24.97
-0.03,-0.83,-0.7,3.38,44.44,27.48
-0.01,-0.98,-0.63,9.39,40.01,22.01
-0.05,-1.13,-0.54,20.51,37.35,6.11
-0.13,-1.33,-0.39,17.02,31.96,-9.07
-0.24,-1.44,-0.29,2.22,31.9,-23.42
-0.31,-1.35,-0.24,-9.97,41.65,-38.83
-0.24,-1.13,-0.24,-9.24,48.76,-45.48
-0.11,-0.95,-0.25,-20.75,33.86,-44.62
-0.01,-0.86,-0.21,-41.06,3.74,-34.12
0.04,-0.72,-0.19,-63.91,-34.67,-20.77
0.09,-0.52,-0.29,-64.0,-50.64,-4.46
0.11,-0.27,-0.44,-52.14,-57.36,4.7
0.07,-0.14,-0.61,-42.65,-41.3,20.77
0.05,-0.15,-0.75,-14.83,-13.11,25.94
0.01,-0.26,-0.76,-0.05,1.93,28.4
-0.02,-0.53,-0.71,2.79,17.17,33.85
-0.01,-0.8,-0.63,2.47,22.13,34.9
0.02,-0.99,-0.61,8.33,26.58,35.34
0.01,-1.14,-0.52,17.69,21.54,19.94
-0.1,-1.32,-0.42,16.61,19.07,-0.36
-0.23,-1.45,-0.32,4.49,12.6,-17.1
-0.35,-1.38,-0.3,-6.29,25.94,-35.01
-0.31,-1.14,-0.3,-5.64,43.34,-45.44
-0.15,-0.97,-0.34,-5.91,43.26,-46.3
0.0,-0.86,-0.32,-17.04,19.0,-33.55
0.08,-0.74,-0.27,-38.29,-12.65,-18.13
0.1,-0.59,-0.27,-54.09,-41.96,-0.67
0.12,-0.37,-0.33,-56.72,-55.09,8.39
0.12,-0.2,-0.48,-56.09,-52.74,23.21
0.05,-0.19,-0.64,-37.59,-37.99,28.57
-0.03,-0.26,-0.76,-10.79,-20.49,23.72
-0.08,-0.47,-0.76,-3.79,1.99,28.46
-0.08,-0.78,-0.76,6.97,22.78,29.7
-0.03,-0.96,-0.73,18.57,39.27,31.8
-0.01,-1.12,-0.59,23.53,32.24,17.94
-0.08,-1.29,-0.47,21.73,36.22,0.71
-0.19,-1.4,-0.27,-2.04,28.29,-14.59
-0.27,-1.39,-0.23,-11.49,27.97,-31.39
-0.21,-1.23,-0.25,-10.76,28.19,-38.32
-0.12,-1.07,-0.25,-13.92,12.14,-42.74
-0.02,-0.97,-0.23,-23.86,-18.12,-40.64
0.01,-0.87,-0.22,-38.08,-46.46,-35.07
-0.01,-0.68,-0.29,-41.05,-50.42,-23.75
-0.02,-0.46,-0.34,-42.18,-50.21,-14.68
0.01,-0.27,-0.45,-37.5,-42.42,1.9
0.08,-0.2,-0.59,-41.79,-37.05,25.65
0.14,-0.22,-0.67,-22.52,-20.98,37.83
0.15,-0.24,-0.71,-8.46,-24.95,40.91
0.09,-0.42,-0.67,-9.19,-27.68,49.93
-0.0,-0.66,-0.63,-1.96,-25.45,50.36
-0.07,-0.86,-0.6,13.07,-18.79,45.28
-0.13,-1.09,-0.52,22.2,-17.1,29.55
-0.26,-1.29,-0.38,14.19,-11.02,11.29
-0.39,-1.44,-0.25,-6.69,-2.43,-4.21
-0.41,-1.41,-0.27,-18.37,5.6,-24.25
-0.32,-1.19,-0.31,-23.51,16.72,-31.99
-0.16,-1.05,-0.34,-26.85,1.86,-36.52
-0.06,-0.96,-0.37,-28.87,-27.27,-34.77
-0.01,-0.87,-0.41,-28.72,-52.03,-27.07
-0.03,-0.7,-0.46,-27.48,-59.89,-13.68
-0.02,-0.5,-0.55,-13.32,-39.53,0.6
-0.06,-0.3,-0.6,-7.12,-24.21,7.31
-0.01,-0.26,-0.7,-7.14,13.35,21.15
0.07,-0.32,-0.75,0.69,28.34,25.08
0.06,-0.42,-0.69,-2.61,30.3,27.24
0.0,-0.66,-0.57,-8.86,24.05,36.24
0.01,-0.89,-0.5,-3.42,7.04,34.52
-0.01,-1.1,-0.47,10.56,-18.93,26.04
-0.1,-1.26,-0.45,21.1,-45.63,0.65
-0.4,-1.31,-0.31,8.46,-34.03,-24.89
-0.64,-1.26,-0.15,-13.97,4.58,-38.73
-0.51,-1.15,-0.16,-27.6,49.86,-43.61
-0.23,-1.01,-0.19,-40.51,35.56,-42.8
-0.01,-0.88,-0.27,-50.22,-7.5,-27.36
0.12,-0.75,-0.41,-49.54,-45.63,-6.12
0.11,-0.55,-0.51,-42.48,-64.0,-0.3
0.05,-0.37,-0.61,-30.08,-44.56,7.78
0.02,-0.28,-0.65,-32.6,-24.73,23.4
-0.02,-0.31,-0.74,-14.69,7.81,27.68
-0.08,-0.4,-0.71,-4.37,26.02,26.89
-0.14,-0.59,-0.64,-5.93,48.69,27.13
-0.1,-0.84,-0.59,-4.9,54.04,30.07
-0.0,-1.04,-0.5,6.0,31.33,25.95
0.02,-1.25,-0.44,15.4,-8.44,11.7
-0.1,-1.39,-0.37,20.34,-34.86,-15.21
-0.41,-1.37,-0.19,-2.16,-29.06,-35.78
-0.57,-1.26,-0.12,-15.48,25.08,-49.93
-0.41,-1.1,-0.13,-23.72,38.24,-58.25
-0.17,-0.94,-0.17,-37.38,22.07,-46.18
0.04,-0.79,-0.22,-47.89,-18.65,-20.83
0.11,-0.56,-0.31,-48.85,-42.43,6.24
0.09,-0.32,-0.4,-39.6,-64.0,10.8
0.01,-0.16,-0.49,-38.4,-64.0,20.95
-0.05,-0.17,-0.53,-29.69,-57.27,27.78
-0.07,-0.23,-0.62,-4.28,-38.67,26.83
-0.09,-0.38,-0.66,-1.56,-23.61,26.29
-0.11,-0.69,-0.69,4.82,-3.05,26.83
-0.1,-0.97,-0.69,15.71,12.63,26.53
-0.1,-1.21,-0.65,20.68,20.05,25.88
-0.09,-1.35,-0.57,15.21,8.26,21.26
-0.13,-1.37,-0.48,16.38,-4.18,3.21
-0.32,-1.27,-0.34,5.92,-13.29,-26.55
-0.54,-1.21,-0.22,-15.86,10.14,-38.44
-0.52,-1.16,-0.15,-29.21,37.98,-48.16
-0.29,-1.0,-0.19,-33.37,37.12,-44.13
-0.07,-0.79,-0.21,-47.53,10.28,-23.08
0.04,-0.66,-0.27,-53.08,-19.74,-3.76
0.05,-0.47,-0.4,-44.39,-44.17,5.11
0.05,-0.27,-0.49,-34.27,-53.75,14.43
0.0,-0.21,-0.55,-33.05,-41.7,23.87
-0.04,-0.27,-0.61,-12.19,-24.13,21.1
-0.1,-0.39,-0.64,-2.64,-5.88,21.81
-0.12,-0.62,-0.68,1.03,11.79,26.56
-0.12,-0.89,-0.67,9.34,22.51,24.75
-0.11,-1.09,-0.61,16.69,26.02,21.21
-0.1,-1.27,-0.52,16.62,14.98,14.32
-0.16,-1.34,-0.43,17.4,2.18,-2.02
-0.35,-1.3,-0.29,6.69,-9.43,-28.05
-0.54,-1.24,-0.15,-16.93,14.51,-39.88
-0.47,-1.17,-0.11,-26.75,36.81,-46.29
-0.25,-1.01,-0.14,-38.64,26.85,-41.6
-0.07,-0.81,-0.18,-56.84,-6.87,-19.9
0.01,-0.61,-0.29,-58.96,-34.28,0.01
0.04,-0.37,-0.42,-46.28,-49.61,7.66
0.02,-0.2,-0.55,-38.82,-49.04,19.87
0.0,-0.17,-0.65,-26.75,-29.21,30.0
-0.03,-0.23,-0.68,-2.4,-14.43,24.5
-0.11,-0.41,-0.66,4.47,4.22,24.61
-0.14,-0.71,-0.68,5.34,16.83,26.95
-0.13,-0.98,-0.62,11.67,26.0,25.21
-0.1,-1.19,-0.57,20.32,22.66,17.22
-0.13,-1.35,-0.48,15.24,12.61,8.58
-0.26,-1.4,-0.37,10.53,2.04,-14.07
-0.44,-1.31,-0.25,-2.38,9.95,-31.48
-0.5,-1.21,-0.17,-16.2,38.28,-44.85
-0.36,-1.1,-0.18,-23.23,42.69,-48.14
-0.13,-0.92,-0.17,-39.34,21.16,-37.03
-0.02,-0.76,-0.17,-56.37,-10.62,-16.62
0.01,-0.57,-0.25,-60.21,-44.74,-4.8
-0.02,-0.38,-0.4,-54.29,-63.86,2.73
-0.0,-0.23,-0.55,-40.76,-48.58,23.07
0.02,-0.18,-0.66,-27.11,-33.23,29.83
-0.06,-0.24,-0.67,-1.34,-20.08,22.27
-0.15,-0.42,-0.63,1.65,-7.63,23.49
-0.18,-0.74,-0.63,1.87,3.41,21.74
-0.19,-1.02,-0.6,4.37,16.18,15.03
-0.15,-1.22,-0.59,10.46,19.11,15.0
-0.14,-1.29,-0.54,8.82,11.68,6.75
-0.21,-1.26,-0.43,8.1,7.43,-9.42
-0.36,-1.19,-0.3,-3.91,13.16,-25.69
-0.45,-1.17,-0.2,-19.01,36.04,-35.74
-0.39,-1.11,-0.14,-29.76,28.55,-44.1
-0.25,-0.98,-0.12,-43.25,1.54,-40.42
-0.11,-0.83,-0.19,-53.97,-33.28,-27.71
0.03,-0.63,-0.34,-43.54,-42.6,-5.39
0.09,-0.42,-0.47,-32.9,-46.98,9.7
0.09,-0.26,-0.52,-28.85,-44.07,24.72
0.05,-0.25,-0.55,-30.4,-47.12,31.59
-0.09,-0.33,-0.54,-19.04,-44.06,21.74
-0.21,-0.49,-0.56,-10.91,-24.98,22.99
-0.21,-0.68,-0.64,-1.38,-8.84,24.14
-0.19,-0.9,-0.64,9.72,4.73,16.8
-0.19,-1.07,-0.58,16.19,16.05,10.66
-0.21,-1.23,-0.5,11.9,22.08,5.1
-0.25,-1.29,-0.39,0.04,15.26,-5.05
-0.29,-1.23,-0.32,-8.69,11.54,-18.81
-0.31,-1.14,-0.27,-16.31,7.28,-28.53
-0.29,-1.08,-0.24,-24.33,-3.3,-39.17
-0.27,-1.01,-0.21,-34.89,-17.68,-40.76
-0.2,-0.9,-0.26,-38.98,-25.29,-30.9
-0.06,-0.74,-0.4,-29.64,-21.24,-14.18
0.02,-0.51,-0.46,-23.51,-22.16,0.28
-0.02,-0.37,-0.43,-26.49,-19.92,14.38
-0.03,-0.31,-0.44,-32.67,-29.5,26.43
-0.09,-0.35,-0.44,-33.74,-37.81,24.23
-0.18,-0.43,-0.46,-21.21,-29.4,25.23
-0.19,-0.53,-0.55,-7.68,-14.24,27.83
-0.19,-0.68,-0.59,2.83,1.19,28.87
-0.2,-0.84,-0.56,12.56,8.32,24.33
-0.24,-1.01,-0.51,17.37,16.15,16.17
-0.28,-1.19,-0.42,6.59,14.2,4.4
-0.34,-1.28,-0.37,-8.49,11.75,-10.59
-0.37,-1.23,-0.33,-16.07,11.94,-22.34
-0.3,-1.13,-0.36,-19.66,15.81,-26.36
-0.21,-1.05,-0.37,-24.32,8.7,-32.47
-0.17,-0.97,-0.37,-28.34,-2.84,-29.63
-0.15,-0.86,-0.38,-26.75,-7.8,-20.66
-0.11,-0.74,-0.37,-27.38,-13.01,-14.0
-0.09,-0.6,-0.35,-29.37,-12.69,-3.03
-0.08,-0.47,-0.36,-27.56,-14.48,13.36
-0.08,-0.36,-0.38,-29.49,-22.83,23.23
-0.11,-0.38,-0.4,-28.04,-26.67,24.11
-0.17,-0.44,-0.43,-12.05,-20.06,26.43
-0.19,-0.54,-0.5,-4.31,-8.02,27.85
-0.18,-0.72,-0.54,4.09,4.24,25.26
-0.18,-0.9,-0.57,13.35,12.2,18.77
-0.2,-1.09,-0.56,13.26,16.2,12.97
-0.25,-1.22,-0.49,6.62,13.95,3.93
-0.34,-1.24,-0.4,-0.57,11.61,-11.91
-0.41,-1.17,-0.33,-11.56,17.89,-25.08
-0.41,-1.09,-0.29,-20.66,24.35,-32.28
-0.31,-1.0,-0.28,-25.82,19.96,-32.42
-0.2,-0.87,-0.26,-34.73,2.07,-27.3
-0.11,-0.72,-0.26,-40.21,-15.87,-11.06
-0.04,-0.6,-0.36,-34.62,-23.64,4.67
-0.18,-0.35,-0.42,-19.78,-29.38,21.65
-0.22,-0.46,-0.44,-11.82,-19.14,23.71
-0.2,-0.63,-0.5,-10.74,-9.47,23.87
-0.18,-0.8,-0.56,-2.89,-0.29,23.33
-0.16,-0.93,-0.6,7.43,5.11,20.83
-0.18,-1.06,-0.58,13.46,0.07,13.91
-0.38,-1.22,-0.4,2.25,6.06,-18.23
-0.47,-1.19,-0.29,-14.7,22.8,-28.2
-0.44,-1.13,-0.26,-20.54,36.88,-33.38
-0.29,-1.01,-0.24,-29.01,25.99,-33.62
-0.18,-0.9,-0.22,-35.1,1.28,-24.6
-0.09,-0.79,-0.22,-41.66,-22.7,-15.97
-0.09,-0.66,-0.3,-41.5,-26.78,0.66
-0.04,-0.31,-0.4,-31.32,-29.15,27.55
-0.11,-0.3,-0.44,-24.92,-43.84,21.25
-0.2,-0.39,-0.43,-14.63,-36.26,16.81
-0.21,-0.55,-0.51,-5.64,-24.31,23.25
-0.21,-0.72,-0.6,-3.71,-8.21,25.55
-0.22,-0.85,-0.62,5.77,4.27,25.61
-0.21,-0.76,-0.53,-3.98,-8.28,26.45
-0.22,-0.87,-0.59,3.36,2.38,27.9
-0.24,-0.92,-0.58,9.99,6.92,22.8
-0.28,-0.99,-0.52,13.15,8.04,13.23
-0.36,-1.12,-0.42,8.9,4.38,-2.43
-0.48,-1.23,-0.32,-5.54,9.38,-21.38
-0.51,-1.23,-0.26,-20.18,31.62,-20.62
-0.24,-0.88,-0.57,10.34,21.02,18.4
-0.24,-1.02,-0.52,11.18,26.16,17.02
-0.26,-1.11,-0.44,9.57,20.5,11.13
-0.11,-0.6,-0.41,-39.0,-34.25,8.41
-0.08,-0.34,-0.49,-21.15,-23.81,19.77
-0.14,-0.23,-0.47,-18.74,-22.98,21.06
-0.24,-0.33,-0.46,-5.36,-20.44,11.79
-0.26,-0.48,-0.49,2.37,-8.95,18.57
-0.35,-1.04,-0.44,17.09,-1.6,2.28
-0.55,-1.2,-0.28,8.85,4.57,-25.03
-0.7,-1.3,-0.19,-16.0,48.94,-30.85
-0.54,-1.21,-0.2,-20.95,64.0,-28.03
-0.25,-0.99,-0.25,-25.4,64.0,-22.02
-0.11,-0.87,-0.19,-36.51,23.1,-16.44
-0.09,-0.8,-0.17,-45.14,-16.91,-14.51
-0.13,-0.66,-0.2,-47.12,-50.2,-13.87
-0.2,-0.56,-0.27,-46.47,-52.52,-11.15
-0.19,-0.45,-0.44,-29.36,-26.32,3.66
-0.1,-0.37,-0.57,-20.84,-4.4,20.34
-0.09,-0.4,-0.61,-6.03,5.51,23.03
-0.16,-0.47,-0.58,3.92,5.5,23.44
-0.2,-0.64,-0.55,3.97,14.58,27.87
-0.21,-0.81,-0.56,2.72,18.43,26.04
-0.21,-0.91,-0.55,6.06,15.02,25.38
-0.24,-0.98,-0.51,13.89,0.79,10.26
-0.39,-1.12,-0.38,12.87,6.3,-13.27
-0.58,-1.29,-0.2,-17.32,63.66,-31.86
-0.37,-1.16,-0.25,-18.29,64.0,-32.18
-0.17,-0.98,-0.28,-21.46,40.71,-22.74
-0.12,-0.78,-0.17,-41.15,-24.11,-8.01
-0.18,-0.63,-0.16,-54.82,-42.62,-5.93
-0.25,-0.47,-0.21,-57.1,-43.07,-3.16
-0.24,-0.34,-0.39,-46.24,-25.7,9.84
-0.16,-0.29,-0.59,-26.24,-0.5,17.84
-0.09,-0.32,-0.72,0.1,10.86,19.27
-0.09,-0.47,-0.74,14.39,13.22,24.78
-0.11,-0.73,-0.71,17.11,21.28,27.02
-0.16,-0.93,-0.62,15.85,23.8,22.8
-0.23,-1.05,-0.53,15.57,19.52,11.44
-0.34,-1.15,-0.44,10.32,21.63,-5.73
-0.45,-1.26,-0.34,6.03,33.48,-15.65
-0.46,-1.27,-0.33,0.87,44.34,-29.01
-0.45,-1.19,-0.26,-11.46,59.06,-37.26
-0.34,-1.08,-0.24,-13.09,63.87,-32.94
-0.18,-0.93,-0.21,-21.87,41.87,-26.58
-0.12,-0.8,-0.12,-44.43,10.7,-13.17
-0.12,-0.66,-0.09,-62.17,-17.24,-0.35
-0.1,-0.48,-0.21,-63.48,-35.21,8.01
-0.07,-0.3,-0.36,-51.85,-42.47,17.43
-0.08,-0.24,-0.55,-33.68,-36.7,21.39
-0.14,-0.29,-0.62,-4.96,-21.29,15.2
-0.19,-0.45,-0.64,6.53,-4.95,16.42
-0.19,-0.71,-0.66,6.56,8.95,19.11
-0.18,-0.9,-0.65,6.56,29.26,22.22
-0.16,-1.0,-0.62,10.66,39.75,22.2
-0.12,-1.05,-0.54,13.21,32.61,16.09
-0.14,-1.18,-0.47,18.3,12.79,6.49
-0.28,-1.28,-0.39,17.24,0.09,-21.73
-0.56,-1.31,-0.2,-13.5,12.61,-36.26
-0.6,-1.24,-0.16,-20.17,60.74,-41.07
-0.35,-1.01,-0.22,-20.53,64.0,-41.31
-0.12,-0.82,-0.18,-39.45,36.08,-23.91
0.01,-0.72,-0.13,-57.95,-7.3,-3.76
0.01,-0.56,-0.21,-63.8,-42.29,8.46
-0.03,-0.35,-0.35,-52.1,-58.06,10.9
-0.1,-0.21,-0.5,-39.43,-49.13,18.29
-0.18,-0.23,-0.63,-14.5,-20.58,14.89
-0.23,-0.35,-0.67,4.69,6.4,13.34
-0.24,-0.58,-0.66,4.02,31.49,16.75
-0.17,-0.85,-0.64,-0.61,42.33,24.89
-0.09,-0.98,-0.65,-0.49,42.78,32.76
-0.02,-1.0,-0.64,13.55,22.78,29.84
-0.07,-1.06,-0.56,23.62,6.0,7.9
-0.3,-1.23,-0.38,16.3,6.31,-13.3
-0.54,-1.37,-0.21,-2.68,20.19,-29.69
-0.62,-1.35,-0.12,-19.2,58.17,-40.25
-0.46,-1.17,-0.12,-18.71,64.0,-44.57
-0.16,-0.99,-0.16,-26.62,44.98,-40.24
0.03,-0.85,-0.17,-41.66,-4.03,-21.53
0.07,-0.71,-0.22,-54.52,-43.62,-8.72
0.03,-0.48,-0.31,-54.94,-60.67,1.98
-0.04,-0.28,-0.43,-47.46,-58.74,10.59
-0.1,-0.17,-0.57,-39.53,-35.62,24.29
-0.15,-0.18,-0.67,-13.58,-11.41,20.0
-0.25,-0.3,-0.66,0.78,9.38,19.35
-0.24,-0.56,-0.65,1.94,28.28,23.74
-0.17,-0.83,-0.65,-1.83,37.34,32.41
-0.06,-0.93,-0.65,4.23,24.16,44.15
-0.02,-0.98,-0.64,27.01,-1.65,28.37
-0.17,-1.11,-0.51,35.98,-7.55,-9.78
-0.47,-1.37,-0.23,0.9,8.47,-17.49
-0.59,-1.52,-0.18,-14.83,40.6,-29.39
-0.47,-1.34,-0.18,-24.74,56.86,-41.18
-0.28,-1.11,-0.22,-22.12,51.84,-42.29
-0.07,-0.98,-0.27,-27.3,19.47,-38.28
0.0,-0.88,-0.29,-39.46,-19.07,-30.8
-0.01,-0.7,-0.35,-50.06,-36.64,-12.53
-0.02,-0.49,-0.4,-54.16,-33.19,3.72
-0.06,-0.27,-0.48,-47.15,-20.14,9.64
-0.09,-0.14,-0.62,-36.63,-2.54,19.64
-0.12,-0.18,-0.71,-15.8,17.9,19.9
-0.16,-0.37,-0.7,-3.9,29.35,21.93
-0.17,-0.6,-0.65,-5.86,43.0,25.64
-0.1,-0.84,-0.62,-10.71,30.89,35.94
-0.05,-0.9,-0.59,4.54,12.96,35.29
-0.1,-1.01,-0.52,28.18,12.03,4.91
-0.33,-1.25,-0.31,10.39,22.98,-8.08
-0.48,-1.48,-0.21,-13.19,37.38,-14.44
-0.44,-1.39,-0.25,-17.95,46.62,-30.87
-0.33,-1.12,-0.22,-22.83,51.33,-36.43
-0.17,-0.99,-0.23,-25.66,41.85,-37.17
-0.03,-0.91,-0.23,-44.05,6.05,-33.68
-0.01,-0.8,-0.32,-50.01,-21.82,-23.71
0.0,-0.6,-0.4,-53.94,-44.77,-14.25
-0.0,-0.41,-0.51,-42.22,-33.58,-5.37
-0.01,-0.25,-0.63,-29.55,-13.4,5.34
-0.0,-0.22,-0.73,-18.55,20.23,19.76
-0.01,-0.33,-0.74,-1.12,30.12,22.33
-0.06,-0.5,-0.66,-1.58,34.95,28.62
-0.07,-0.72,-0.58,-6.38,26.35,31.86
-0.06,-0.86,-0.56,-3.61,20.79,29.82
-0.08,-0.96,-0.54,11.69,12.38,22.14
-0.2,-1.11,-0.45,16.13,19.71,3.75
-0.31,-1.29,-0.3,6.57,27.12,-4.61
-0.37,-1.35,-0.25,1.6,31.6,-21.59
-0.37,-1.23,-0.21,-9.8,44.19,-34.3
-0.27,-1.07,-0.19,-13.86,45.83,-37.01
-0.1,-0.95,-0.2,-23.82,20.12,-35.43
