ax,ay,az,gx,gy,gz
0.31,-0.64,-0.5,-23.03,17.81,35.78
0.25,-0.65,-0.52,-31.8,16.18,36.97
0.16,-0.69,-0.55,-39.85,3.44,39.11
0.07,-0.72,-0.61,-43.07,-17.3,37.71
0.01,-0.8,-0.69,-34.69,-40.3,30.25
-0.1,-0.87,-0.76,-20.78,-48.42,10.67
-0.33,-0.92,-0.81,-9.81,-35.13,-17.1
-0.55,-0.91,-0.8,-7.38,1.13,-34.33
-0.5,-0.84,-0.75,-0.99,38.37,-42.68
-0.24,-0.75,-0.68,1.33,50.41,-43.15
0.01,-0.67,-0.61,-1.7,38.49,-35.17
0.23,-0.6,-0.56,-8.2,25.37,-12.8
0.41,-0.5,-0.52,-16.27,19.39,17.86
0.48,-0.42,-0.47,-23.9,15.32,29.84
0.42,-0.42,-0.47,-31.3,13.94,39.0
0.27,-0.5,-0.5,-41.16,15.49,47.5
0.12,-0.65,-0.51,-47.38,1.53,51.56
0.03,-0.81,-0.58,-40.43,-20.64,46.8
-0.08,-0.89,-0.73,-23.34,-32.16,28.09
-0.36,-0.96,-0.8,-11.68,-29.66,-5.24
-0.67,-0.98,-0.76,-5.65,0.74,-26.55
-0.6,-0.92,-0.73,1.99,37.9,-38.98
-0.31,-0.81,-0.68,7.49,42.64,-48.63
-0.1,-0.75,-0.6,8.86,26.21,-50.68
0.08,-0.73,-0.57,6.59,10.18,-43.16
0.27,-0.66,-0.58,4.76,4.95,-22.24
0.4,-0.54,-0.53,-1.1,2.69,-5.03
0.41,-0.44,-0.46,-11.32,11.46,16.64
0.4,-0.42,-0.46,-22.93,23.23,34.17
0.33,-0.47,-0.49,-31.06,22.85,42.26
0.18,-0.53,-0.51,-38.56,15.0,48.83
0.1,-0.63,-0.54,-38.41,-8.02,52.03
0.07,-0.77,-0.63,-24.2,-35.66,42.28
-0.15,-0.91,-0.76,-7.07,-50.21,18.88
-0.53,-1.02,-0.79,2.97,-33.45,-16.69
-0.76,-1.04,-0.74,4.78,14.37,-35.07
-0.56,-0.96,-0.69,10.08,39.69,-49.46
-0.23,-0.84,-0.64,12.89,34.62,-59.78
-0.01,-0.8,-0.6,13.23,16.07,-56.9
0.21,-0.75,-0.62,11.81,11.78,-39.22
0.4,-0.62,-0.61,8.9,8.25,-18.76
0.42,-0.47,-0.49,-3.22,5.29,-1.01
0.41,-0.42,-0.45,-14.51,22.38,27.81
0.41,-0.42,-0.45,-28.63,27.05,38.56
0.31,-0.46,-0.43,-36.55,26.14,46.92
0.15,-0.55,-0.44,-43.61,16.63,54.07
0.06,-0.71,-0.51,-39.33,-16.67,52.12
-0.0,-0.85,-0.63,-19.25,-41.3,40.26
-0.2,-1.01,-0.74,-12.54,-53.56,7.98
-0.59,-1.07,-0.73,-6.03,-33.03,-21.76
-0.7,-0.98,-0.7,-0.31,18.69,-36.73
-0.41,-0.87,-0.69,9.39,34.79,-47.33
-0.16,-0.8,-0.63,12.23,20.59,-60.05
-0.01,-0.82,-0.57,7.34,5.67,-54.35
0.22,-0.77,-0.58,4.37,4.34,-29.77
0.46,-0.61,-0.59,4.12,-5.7,-12.59
0.47,-0.47,-0.49,-4.28,5.23,9.96
0.46,-0.43,-0.45,-17.77,24.41,37.07
0.4,-0.45,-0.42,-28.46,34.6,42.12
0.24,-0.51,-0.41,-41.27,34.17,52.85
0.14,-0.61,-0.43,-51.98,12.75,60.06
0.15,-0.72,-0.49,-43.53,-25.6,60.68
0.11,-0.84,-0.67,-22.7,-51.28,46.75
-0.22,-0.96,-0.75,-15.63,-56.57,10.29
-0.74,-1.06,-0.7,-8.34,-27.64,-19.45
-0.81,-1.05,-0.7,-2.32,18.84,-32.71
-0.5,-0.96,-0.69,5.0,38.09,-44.45
-0.18,-0.86,-0.64,9.08,27.63,-60.96
-0.05,-0.86,-0.6,7.32,7.22,-64.0
0.1,-0.85,-0.61,3.21,-1.39,-49.17
0.36,-0.74,-0.66,7.7,0.83,-30.55
0.45,-0.54,-0.58,0.83,-1.0,-15.26
0.43,-0.44,-0.45,-6.07,19.12,13.69
0.48,-0.4,-0.41,-23.8,34.55,36.94
0.41,-0.43,-0.37,-34.82,38.12,45.04
0.19,-0.52,-0.36,-46.76,34.34,54.74
0.08,-0.61,-0.39,-55.61,3.31,62.16
0.11,-0.71,-0.48,-45.12,-43.21,61.15
0.08,-0.84,-0.7,-22.02,-64.0,47.25
-0.32,-0.94,-0.75,-14.92,-64.0,5.71
-0.82,-1.02,-0.7,-5.25,-21.36,-21.96
-0.81,-1.02,-0.71,2.44,35.81,-32.19
-0.4,-0.95,-0.69,10.41,46.53,-48.78
-0.12,-0.89,-0.62,12.27,22.46,-64.0
-0.03,-0.9,-0.6,9.82,-7.18,-64.0
0.19,-0.86,-0.64,8.03,-7.78,-41.54
0.49,-0.67,-0.65,10.25,-3.81,-16.89
0.57,-0.48,-0.48,-2.68,9.61,6.68
0.55,-0.41,-0.34,-19.12,28.38,34.98
0.45,-0.44,-0.35,-35.62,34.78,38.65
0.24,-0.54,-0.37,-50.14,35.71,49.22
0.1,-0.63,-0.38,-62.96,21.1,57.86
0.13,-0.7,-0.42,-59.22,-23.1,61.68
0.2,-0.76,-0.64,-32.84,-52.51,57.25
-0.06,-0.87,-0.78,-21.7,-64.0,26.55
-0.61,-0.96,-0.74,-13.56,-51.73,-7.58
-0.94,-1.01,-0.74,2.46,3.65,-28.15
-0.73,-0.98,-0.75,7.52,37.92,-45.57
-0.33,-0.87,-0.67,14.75,44.3,-54.61
-0.08,-0.82,-0.57,14.22,14.74,-64.0
0.05,-0.85,-0.53,4.8,0.87,-56.15
0.3,-0.77,-0.59,0.97,-0.09,-30.05
0.48,-0.57,-0.55,-4.89,-8.32,-15.25
0.47,-0.45,-0.43,-15.17,11.06,12.08
0.51,-0.42,-0.4,-27.76,25.54,39.03
0.46,-0.45,-0.39,-38.46,30.4,49.11
0.24,-0.55,-0.38,-51.38,29.34,57.94
0.12,-0.66,-0.42,-59.76,2.43,64.0
0.13,-0.72,-0.53,-45.41,-37.88,64.0
0.04,-0.8,-0.73,-21.44,-54.73,47.1
-0.36,-0.92,-0.74,-17.26,-53.54,8.75
-0.82,-1.03,-0.7,-5.94,-14.04,-19.39
-0.77,-1.03,-0.74,0.35,30.68,-32.91
-0.41,-0.96,-0.7,9.13,44.31,-46.41
-0.15,-0.89,-0.61,10.65,30.02,-58.48
-0.0,-0.88,-0.56,9.09,8.75,-58.87
0.14,-0.85,-0.58,4.83,-5.78,-46.77
0.34,-0.71,-0.59,2.04,-1.95,-28.32
0.41,-0.55,-0.48,-6.15,-12.48,-14.48
0.36,-0.46,-0.4,-14.92,10.28,9.67
0.4,-0.42,-0.41,-28.52,23.92,33.99
0.37,-0.44,-0.38,-33.16,29.53,42.67
0.19,-0.51,-0.37,-44.92,25.52,53.38
0.13,-0.62,-0.42,-53.01,4.48,62.5
0.15,-0.71,-0.5,-45.41,-36.44,64.0
0.11,-0.79,-0.66,-27.31,-50.01,55.63
-0.28,-0.9,-0.72,-20.72,-58.16,19.47
-0.67,-1.0,-0.7,-10.09,-29.28,-7.09
-0.74,-1.09,-0.74,-1.51,8.53,-26.22
-0.52,-1.06,-0.73,4.79,27.13,-40.64
-0.24,-0.94,-0.67,13.37,21.17,-54.78
-0.12,-0.87,-0.64,18.61,4.93,-64.0
-0.09,-0.85,-0.61,12.81,-15.63,-64.0
0.11,-0.76,-0.65,14.78,5.87,-39.54
0.41,-0.53,-0.61,14.27,3.85,-21.9
0.46,-0.38,-0.49,5.27,25.04,6.52
0.49,-0.35,-0.39,-13.05,41.03,39.15
0.44,-0.42,-0.35,-19.62,41.86,40.75
0.24,-0.55,-0.35,-34.22,39.06,52.82
0.09,-0.7,-0.34,-50.4,17.16,57.72
0.05,-0.82,-0.37,-49.66,-33.49,54.75
0.04,-0.9,-0.54,-30.91,-64.0,40.97
-0.13,-1.0,-0.73,-14.98,-64.0,12.89
-0.67,-1.04,-0.72,-15.69,-61.1,-29.99
-0.94,-1.01,-0.68,-7.46,8.12,-37.05
-0.57,-0.9,-0.73,7.18,45.34,-47.25
-0.21,-0.84,-0.7,11.1,35.18,-61.7
-0.05,-0.85,-0.62,9.04,15.45,-64.0
0.08,-0.86,-0.57,4.67,-8.19,-56.6
0.29,-0.78,-0.58,1.45,-9.78,-30.55
0.53,-0.59,-0.55,-0.57,0.63,-5.36
0.56,-0.45,-0.38,-15.97,7.49,16.63
0.47,-0.44,-0.3,-31.17,20.19,33.69
0.33,-0.5,-0.36,-39.69,27.86,45.26
0.14,-0.62,-0.36,-54.99,27.1,52.66
0.07,-0.73,-0.37,-59.86,4.06,58.26
0.11,-0.8,-0.5,-43.41,-39.36,53.1
0.01,-0.84,-0.7,-23.12,-53.38,38.59
-0.37,-0.91,-0.74,-11.81,-49.26,4.79
-0.74,-0.99,-0.69,-1.65,-10.93,-20.52
-0.7,-1.02,-0.71,3.16,28.83,-30.06
-0.37,-0.93,-0.66,7.81,42.93,-41.17
-0.08,-0.84,-0.58,8.84,34.44,-46.74
0.05,-0.82,-0.54,5.79,9.76,-48.36
0.15,-0.81,-0.56,1.92,5.84,-32.7
0.31,-0.71,-0.57,-0.55,-0.11,-14.23
0.39,-0.57,-0.49,-10.47,4.3,1.72
0.39,-0.48,-0.41,-23.45,13.52,24.26
0.35,-0.46,-0.4,-31.91,20.96,35.56
0.23,-0.51,-0.4,-37.17,27.85,46.18
0.11,-0.59,-0.4,-47.34,22.3,54.61
0.11,-0.7,-0.45,-46.44,-9.49,58.38
0.1,-0.76,-0.59,-30.27,-35.78,52.95
-0.1,-0.86,-0.7,-20.65,-47.39,32.43
-0.47,-0.98,-0.64,-18.85,-39.97,2.98
-0.7,-1.03,-0.69,-6.93,-6.94,-18.01
-0.59,-0.97,-0.72,-3.61,28.75,-26.64
-0.29,-0.87,-0.63,1.31,37.73,-35.87
-0.08,-0.81,-0.54,-1.63,28.25,-39.62
0.08,-0.8,-0.5,-9.88,14.24,-29.34
0.25,-0.73,-0.51,-13.87,10.84,-6.8
0.43,-0.59,-0.5,-17.74,6.75,12.78
0.47,-0.51,-0.43,-25.65,5.04,27.06
0.39,-0.56,-0.41,-35.07,7.01,38.54
0.25,-0.62,-0.42,-42.82,6.31,51.45
0.15,-0.67,-0.45,-43.97,-10.95,55.69
0.06,-0.74,-0.59,-30.1,-24.34,49.05
-0.17,-0.81,-0.7,-26.62,-25.07,32.13
-0.5,-0.85,-0.62,-23.23,-31.44,6.02
-0.62,-0.9,-0.65,-6.35,-19.68,-11.74
-0.55,-0.93,-0.72,-3.36,2.28,-28.03
-0.44,-0.87,-0.65,-1.07,23.12,-35.81
-0.24,-0.78,-0.57,1.19,28.65,-37.81
-0.02,-0.77,-0.53,-4.04,19.75,-36.41
0.11,-0.76,-0.53,-10.1,12.15,-24.18
0.23,-0.69,-0.53,-13.41,2.21,-9.92
0.3,-0.59,-0.51,-18.5,0.41,9.64
0.34,-0.53,-0.5,-23.25,5.59,26.36
0.32,-0.52,-0.48,-26.27,9.51,34.14
0.21,-0.59,-0.46,-33.34,13.69,43.21
0.1,-0.63,-0.45,-40.88,2.9,47.97
0.07,-0.72,-0.47,-37.43,-15.42,50.62
0.05,-0.81,-0.57,-26.45,-24.32,47.53
-0.14,-0.89,-0.66,-25.62,-31.34,28.82
-0.49,-0.88,-0.65,-16.94,-33.96,1.53
-0.64,-0.85,-0.71,1.19,-17.99,-16.26
-0.59,-0.88,-0.75,6.44,1.32,-34.32
-0.47,-0.89,-0.69,12.63,18.27,-45.0
-0.29,-0.86,-0.61,12.67,23.46,-54.01
-0.13,-0.85,-0.56,10.02,14.15,-57.58
0.06,-0.82,-0.57,5.14,9.72,-43.15
0.27,-0.71,-0.6,1.01,17.28,-17.83
0.45,-0.59,-0.47,-8.62,18.16,2.9
0.52,-0.56,-0.35,-20.46,15.28,22.55
0.47,-0.59,-0.36,-35.38,11.12,33.06
0.28,-0.63,-0.39,-44.17,10.66,41.59
0.08,-0.66,-0.4,-50.47,8.79,47.36
-0.01,-0.69,-0.45,-50.46,-9.65,50.27
-0.03,-0.72,-0.56,-36.32,-33.15,46.02
-0.13,-0.75,-0.68,-22.84,-47.55,30.91
-0.41,-0.82,-0.68,-13.75,-35.0,6.36
-0.65,-0.86,-0.67,-5.77,-6.19,-14.26
-0.66,-0.85,-0.7,0.61,24.27,-23.77
-0.44,-0.83,-0.67,2.18,31.84,-29.65
-0.21,-0.81,-0.62,4.17,19.13,-35.52
-0.06,-0.8,-0.58,3.12,2.19,-37.8
-0.02,-0.81,-0.56,0.45,-10.37,-40.01
0.0,-0.79,-0.56,-2.79,-17.1,-36.78
0.07,-0.73,-0.6,-4.34,0.1,-19.19
0.21,-0.63,-0.53,-9.06,11.71,-1.84
0.32,-0.58,-0.42,-19.71,23.83,16.61
0.38,-0.61,-0.4,-28.33,20.57,27.96
0.28,-0.66,-0.44,-36.45,21.97,35.93
0.12,-0.69,-0.44,-42.86,17.4,42.15
0.04,-0.73,-0.46,-43.76,0.09,43.29
-0.01,-0.77,-0.51,-39.01,-35.56,37.89
-0.12,-0.8,-0.62,-24.66,-51.89,27.24
-0.34,-0.82,-0.7,-13.31,-50.01,-0.2
-0.64,-0.84,-0.7,-4.06,-24.03,-24.85
-0.74,-0.84,-0.71,-0.83,21.69,-34.03
-0.48,-0.8,-0.66,3.92,39.17,-40.85
-0.17,-0.79,-0.6,3.81,28.57,-45.76
0.02,-0.8,-0.57,1.67,8.14,-41.96
0.19,-0.76,-0.61,1.77,6.11,-19.58
0.33,-0.66,-0.61,-0.83,7.42,-0.44
0.39,-0.61,-0.51,-6.74,12.74,12.35
0.37,-0.64,-0.43,-21.66,18.59,21.36
0.26,-0.7,-0.43,-36.03,24.67,27.38
0.12,-0.72,-0.44,-44.35,26.76,34.33
0.02,-0.7,-0.45,-48.25,12.84,36.2
-0.01,-0.72,-0.51,-43.24,-23.83,31.19
-0.09,-0.76,-0.61,-26.96,-52.8,20.01
-0.33,-0.79,-0.73,-10.68,-53.03,-3.32
-0.66,-0.81,-0.73,-3.36,-23.82,-30.31
-0.75,-0.79,-0.66,2.92,25.95,-34.67
-0.45,-0.76,-0.62,7.7,34.95,-44.6
-0.16,-0.8,-0.58,5.68,20.07,-51.28
-0.03,-0.84,-0.57,4.1,3.4,-44.34
0.17,-0.8,-0.63,6.9,8.23,-24.26
0.36,-0.71,-0.62,4.08,4.23,-11.07
0.38,-0.65,-0.47,-6.23,7.42,-1.03
0.33,-0.64,-0.41,-17.96,19.37,17.88
0.27,-0.63,-0.43,-31.56,25.47,24.82
0.15,-0.65,-0.43,-39.65,30.03,32.33
0.06,-0.68,-0.43,-44.31,24.89,35.44
0.07,-0.71,-0.46,-45.87,6.36,38.73
0.07,-0.76,-0.5,-42.79,-20.58,38.89
-0.04,-0.79,-0.59,-31.52,-49.37,28.6
-0.27,-0.81,-0.68,-14.45,-50.52,11.66
-0.55,-0.85,-0.73,-2.3,-30.75,-19.84
-0.73,-0.85,-0.72,7.14,11.11,-35.73
-0.6,-0.8,-0.68,15.39,33.64,-49.51
-0.33,-0.79,-0.63,18.37,29.05,-59.69
-0.15,-0.82,-0.57,13.48,6.54,-61.46
0.08,-0.81,-0.59,10.7,15.57,-35.97
0.39,-0.67,-0.59,9.4,14.58,-10.95
0.5,-0.56,-0.44,-1.67,4.13,-1.6
0.42,-0.58,-0.36,-18.93,21.75,23.66
0.4,-0.62,-0.4,-30.72,24.92,33.81
0.27,-0.66,-0.39,-42.1,27.71,40.36
0.12,-0.71,-0.4,-49.48,25.78,46.26
0.06,-0.76,-0.45,-50.29,5.52,47.16
0.03,-0.8,-0.5,-43.53,-26.32,41.96
-0.07,-0.86,-0.62,-30.43,-48.32,32.04
-0.29,-0.9,-0.7,-20.5,-51.41,0.62
-0.68,-0.9,-0.72,-5.49,-29.35,-33.4
-0.81,-0.87,-0.73,4.58,18.71,-47.22
-0.53,-0.84,-0.74,16.53,28.87,-60.48
-0.3,-0.86,-0.66,21.42,14.46,-64.0
-0.14,-0.88,-0.61,20.8,3.76,-64.0
0.12,-0.82,-0.67,24.4,13.69,-53.15
0.36,-0.69,-0.63,24.99,7.48,-46.92
0.33,-0.62,-0.48,16.69,7.29,-41.48
0.24,-0.61,-0.42,2.09,18.86,-21.23
0.29,-0.56,-0.42,-10.7,29.0,0.89
0.4,-0.52,-0.39,-24.59,45.48,29.04
0.44,-0.56,-0.32,-37.01,38.32,40.98
0.33,-0.62,-0.26,-44.71,34.42,51.51
0.23,-0.71,-0.31,-56.6,17.98,60.41
0.15,-0.79,-0.37,-59.33,-16.96,59.93
0.06,-0.85,-0.46,-48.92,-59.44,54.78
-0.07,-0.89,-0.64,-32.34,-64.0,36.6
-0.45,-0.86,-0.78,-16.13,-62.78,-7.79
-0.89,-0.86,-0.75,-0.88,-17.7,-37.68
-0.81,-0.91,-0.75,10.91,30.48,-48.15
-0.42,-0.9,-0.69,19.55,33.26,-60.58
-0.11,-0.88,-0.65,25.8,12.01,-64.0
0.06,-0.85,-0.61,23.5,-2.01,-64.0
0.23,-0.78,-0.57,22.06,-4.21,-47.18
0.38,-0.69,-0.54,16.39,1.17,-30.68
0.42,-0.6,-0.43,1.93,2.94,-19.15
0.39,-0.57,-0.3,-16.47,17.13,6.07
0.47,-0.6,-0.27,-33.84,27.03,30.11
0.47,-0.65,-0.31,-43.89,33.17,41.67
0.3,-0.68,-0.33,-55.57,34.49,53.51
0.18,-0.73,-0.37,-61.29,14.5,58.91
0.12,-0.8,-0.47,-53.51,-17.88,54.88
-0.06,-0.86,-0.6,-42.33,-38.96,37.89
-0.36,-0.88,-0.66,-32.1,-55.99,5.38
-0.62,-0.9,-0.7,-8.66,-43.04,-20.66
-0.64,-0.93,-0.76,0.71,-10.9,-38.12
-0.48,-0.89,-0.76,14.48,21.54,-46.36
-0.24,-0.83,-0.68,21.32,31.85,-51.86
0.01,-0.83,-0.59,18.38,20.05,-56.17
0.18,-0.86,-0.52,13.09,13.69,-41.35
0.37,-0.79,-0.51,7.09,6.73,-27.79
0.42,-0.66,-0.43,-4.82,3.39,-13.41
0.4,-0.64,-0.33,-18.43,10.61,6.6
0.44,-0.6,-0.33,-32.67,16.71,28.42
0.42,-0.61,-0.34,-45.26,18.2,37.74
0.27,-0.66,-0.32,-53.24,20.53,46.37
0.15,-0.68,-0.35,-58.62,11.47,52.39
0.1,-0.73,-0.43,-56.39,-19.63,51.37
0.04,-0.79,-0.58,-41.51,-50.73,40.87
-0.17,-0.87,-0.7,-25.08,-63.67,17.46
-0.51,-0.95,-0.71,-13.51,-56.84,-21.4
-0.8,-0.94,-0.74,3.09,-5.05,-38.13
-0.65,-0.85,-0.75,15.25,33.36,-52.24
-0.32,-0.82,-0.65,20.48,28.64,-64.0
-0.08,-0.85,-0.55,18.11,14.84,-62.55
0.24,-0.83,-0.54,15.06,6.63,-43.1
0.47,-0.69,-0.55,12.67,-1.88,-28.02
0.46,-0.59,-0.45,2.75,-1.91,-14.43
0.4,-0.57,-0.37,-14.58,11.96,10.93
0.44,-0.58,-0.36,-30.44,26.17,32.16
0.42,-0.59,-0.33,-39.27,27.53,44.13
0.29,-0.64,-0.3,-50.99,19.77,50.79
0.13,-0.75,-0.35,-59.97,-5.42,54.29
0.11,-0.81,-0.46,-54.98,-38.14,54.51
0.04,-0.85,-0.64,-38.9,-60.39,43.08
-0.21,-0.92,-0.69,-29.11,-64.0,9.23
-0.62,-0.97,-0.74,-13.07,-49.63,-22.98
-0.79,-0.96,-0.79,0.95,2.58,-38.12
-0.54,-0.89,-0.78,14.4,38.2,-49.51
-0.28,-0.84,-0.7,21.23,27.74,-64.0
-0.14,-0.86,-0.59,21.31,6.08,-64.0
0.09,-0.86,-0.59,17.82,14.15,-48.84
0.43,-0.71,-0.61,19.21,8.44,-30.79
0.48,-0.57,-0.4,3.23,2.17,-12.7
0.48,-0.53,-0.3,-13.86,19.39,17.22
0.53,-0.52,-0.29,-33.78,26.11,35.52
0.41,-0.54,-0.26,-46.96,29.81,46.9
0.2,-0.62,-0.25,-60.82,24.56,55.71
0.09,-0.7,-0.33,-64.0,0.61,61.44
0.09,-0.74,-0.5,-56.79,-39.01,60.51
0.02,-0.78,-0.64,-36.35,-62.06,49.07
-0.18,-0.9,-0.66,-25.48,-64.0,20.08
-0.55,-1.02,-0.71,-15.84,-49.83,-16.94
-0.79,-1.03,-0.79,-0.6,4.34,-32.21
-0.61,-0.96,-0.79,11.75,42.65,-45.36
-0.26,-0.9,-0.7,17.39,32.58,-60.36
-0.06,-0.9,-0.57,16.95,12.59,-64.0
0.14,-0.88,-0.55,11.65,-4.39,-57.2
0.34,-0.79,-0.56,9.4,-0.69,-34.38
0.44,-0.63,-0.46,-1.91,-8.98,-22.17
0.38,-0.54,-0.33,-14.26,-0.25,-1.96
0.37,-0.48,-0.31,-28.11,16.46,25.01
0.36,-0.48,-0.26,-36.69,17.84,37.53
0.2,-0.54,-0.24,-44.4,21.56,46.92
0.1,-0.66,-0.3,-55.67,10.21,56.7
0.15,-0.68,-0.39,-58.83,-20.0,63.17
0.21,-0.69,-0.57,-42.62,-48.86,64.0
0.12,-0.78,-0.68,-26.38,-56.25,53.66
-0.22,-0.99,-0.68,-25.57,-45.75,21.0
-0.6,-1.12,-0.72,-18.79,-23.39,-2.57
-0.69,-1.11,-0.79,-3.64,4.24,-27.62
-0.54,-1.03,-0.8,8.54,23.91,-44.36
-0.35,-0.95,-0.72,15.66,24.65,-64.0
-0.18,-0.93,-0.62,15.59,16.97,-64.0
0.03,-0.89,-0.56,12.55,18.13,-58.99
0.32,-0.76,-0.56,12.48,13.34,-43.31
0.39,-0.59,-0.46,2.43,0.29,-31.7
0.34,-0.52,-0.35,-9.55,9.18,-7.12
0.4,-0.48,-0.33,-23.15,19.21,21.31
0.44,-0.47,-0.3,-37.89,19.55,35.42
0.3,-0.51,-0.27,-45.52,13.87,46.24
0.13,-0.56,-0.31,-53.11,5.92,55.76
0.05,-0.65,-0.39,-55.12,-21.05,60.33
0.05,-0.72,-0.54,-40.76,-46.38,58.24
-0.03,-0.83,-0.67,-24.56,-58.41,40.59
-0.33,-0.98,-0.63,-22.94,-57.57,6.19
-0.67,-1.06,-0.7,-12.51,-25.31,-16.51
-0.68,-1.03,-0.75,-3.0,18.67,-27.85
-0.4,-0.96,-0.72,6.1,28.37,-40.64
-0.18,-0.91,-0.65,9.69,15.07,-56.4
-0.07,-0.91,-0.59,8.89,-3.92,-61.62
0.06,-0.9,-0.57,6.18,-6.35,-48.99
0.27,-0.78,-0.58,6.63,-5.43,-38.53
0.32,-0.64,-0.43,-1.36,-13.77,-27.94
0.32,-0.57,-0.33,-10.44,5.11,1.12
0.4,-0.47,-0.32,-21.05,11.81,24.99
0.34,-0.48,-0.3,-24.96,20.64,37.46
0.2,-0.54,-0.31,-31.35,18.62,44.57
0.09,-0.63,-0.35,-43.43,6.98,52.1
0.09,-0.7,-0.43,-46.3,-30.67,56.56
0.09,-0.74,-0.58,-30.44,-58.1,53.94
-0.04,-0.82,-0.7,-16.79,-64.0,32.37
-0.41,-0.97,-0.7,-12.29,-53.76,-1.28
-0.72,-1.07,-0.74,-5.99,-10.58,-23.2
-0.66,-1.04,-0.75,-1.79,33.06,-30.32
-0.33,-0.96,-0.69,5.41,40.09,-41.73
-0.14,-0.9,-0.62,8.16,25.35,-53.71
-0.06,-0.89,-0.56,8.05,0.45,-58.66
0.05,-0.86,-0.53,5.09,-2.92,-42.89
0.27,-0.74,-0.54,4.07,-5.33,-25.54
0.35,-0.6,-0.43,-6.44,-7.59,-8.41
0.38,-0.51,-0.32,-15.82,10.59,15.88
0.42,-0.5,-0.3,-32.46,17.44,29.71
0.3,-0.56,-0.3,-44.65,26.72,37.55
0.13,-0.62,-0.33,-55.84,28.66,47.18
0.09,-0.68,-0.38,-62.71,10.0,55.71
0.12,-0.76,-0.45,-56.3,-37.2,55.95
0.1,-0.83,-0.62,-32.22,-64.0,48.95
-0.19,-0.91,-0.74,-18.24,-64.0,16.26
-0.68,-0.95,-0.72,-6.7,-50.0,-19.18
-0.93,-0.97,-0.71,-0.87,17.19,-31.7
-0.66,-0.92,-0.69,5.99,52.15,-42.71
-0.28,-0.86,-0.61,8.23,40.77,-56.5
-0.11,-0.87,-0.56,8.28,14.39,-64.0
0.05,-0.89,-0.54,3.97,0.19,-52.23
0.28,-0.82,-0.55,5.83,-6.32,-35.64
0.4,-0.67,-0.5,-0.54,-9.59,-18.83
0.39,-0.57,-0.38,-7.67,2.1,2.45
0.39,-0.52,-0.35,-23.88,21.83,22.81
0.36,-0.56,-0.34,-36.39,30.0,34.54
0.19,-0.64,-0.34,-47.7,32.84,39.58
0.07,-0.69,-0.37,-56.48,21.37,45.74
0.06,-0.74,-0.43,-55.61,-15.6,48.55
0.05,-0.79,-0.56,-37.26,-63.81,41.24
-0.12,-0.86,-0.7,-15.58,-64.0,18.27
-0.49,-0.95,-0.7,-10.42,-64.0,-17.2
-0.84,-0.96,-0.67,-4.21,-1.83,-29.98
-0.69,-0.85,-0.66,2.51,47.99,-40.84
-0.33,-0.81,-0.6,5.64,40.36,-54.59
-0.13,-0.85,-0.54,4.94,9.87,-61.65
0.06,-0.89,-0.53,2.44,-15.43,-52.52
0.27,-0.83,-0.61,4.03,-17.25,-30.76
0.42,-0.69,-0.57,3.02,-18.59,-17.96
0.4,-0.6,-0.43,-5.53,-4.94,-2.79
0.33,-0.6,-0.36,-21.07,17.17,16.21
0.29,-0.61,-0.37,-35.61,28.39,26.03
0.17,-0.64,-0.38,-44.4,32.55,29.41
0.03,-0.67,-0.39,-52.03,30.08,33.35
0.03,-0.69,-0.44,-53.74,12.44,38.02
0.1,-0.72,-0.49,-51.62,-22.05,41.95
0.12,-0.75,-0.56,-42.53,-64.0,41.23
-0.01,-0.77,-0.66,-13.82,-64.0,26.55
-0.31,-0.87,-0.71,-6.42,-61.81,-7.06
-0.78,-0.93,-0.64,-4.37,-14.65,-27.3
-0.77,-0.93,-0.63,0.68,40.98,-29.94
-0.35,-0.87,-0.6,5.88,38.29,-43.77
-0.12,-0.87,-0.54,2.62,8.25,-52.06
-0.04,-0.9,-0.53,4.47,-19.5,-54.25
0.03,-0.85,-0.55,1.75,-41.55,-50.65
0.19,-0.76,-0.57,-1.89,-8.66,-17.02
0.52,-0.61,-0.57,-1.47,7.92,10.51
0.54,-0.51,-0.34,-21.28,7.94,19.61
0.4,-0.56,-0.31,-27.99,20.21,31.39
0.23,-0.64,-0.42,-41.41,28.05,36.37
-0.01,-0.7,-0.42,-54.6,39.48,45.45
-0.02,-0.71,-0.42,-59.28,26.53,54.41
0.1,-0.7,-0.48,-48.71,-24.86,53.9
0.09,-0.72,-0.65,-21.26,-64.0,37.7
-0.27,-0.8,-0.75,-4.22,-64.0,4.8
-0.77,-0.88,-0.68,3.89,-49.42,-22.51
-0.89,-0.96,-0.63,4.36,24.85,-23.09
-0.56,-0.92,-0.58,3.14,51.01,-41.62
-0.23,-0.84,-0.52,4.17,40.32,-50.85
-0.04,-0.84,-0.51,0.77,12.13,-48.84
0.15,-0.86,-0.55,-2.47,3.68,-29.71
0.36,-0.78,-0.58,-4.32,12.0,-0.29
0.54,-0.62,-0.52,-11.33,23.35,22.57
0.57,-0.59,-0.39,-22.15,27.0,34.68
0.41,-0.62,-0.37,-36.95,28.4,40.05
0.16,-0.7,-0.4,-54.07,37.06,48.42
-0.0,-0.73,-0.42,-63.35,25.42,54.83
0.0,-0.74,-0.48,-48.36,-22.17,47.82
-0.04,-0.77,-0.69,-22.23,-57.24,31.66
-0.42,-0.81,-0.8,-6.17,-64.0,-8.75
-0.88,-0.87,-0.7,8.28,-31.91,-31.29
-0.84,-0.91,-0.64,12.95,38.25,-36.11
-0.53,-0.86,-0.59,14.8,53.15,-55.17
-0.25,-0.79,-0.52,16.43,34.64,-62.33
-0.02,-0.78,-0.51,11.67,23.69,-43.26
0.34,-0.76,-0.53,5.74,20.58,-13.05
0.56,-0.66,-0.48,-4.85,12.28,10.07
0.61,-0.58,-0.37,-20.03,23.29,36.21
0.55,-0.6,-0.33,-30.03,24.31,41.06
0.31,-0.65,-0.36,-48.76,27.04,50.54
0.08,-0.71,-0.37,-61.64,30.71,62.48
0.03,-0.73,-0.38,-60.62,11.33,64.0
0.08,-0.76,-0.5,-42.79,-21.53,59.01
-0.04,-0.83,-0.68,-33.36,-54.74,40.83
-0.47,-0.84,-0.69,-22.11,-64.0,8.11
-0.83,-0.82,-0.68,0.12,-49.6,-23.66
-0.85,-0.88,-0.71,7.3,3.0,-38.24
-0.64,-0.89,-0.64,6.81,33.34,-54.57
-0.32,-0.84,-0.57,7.38,28.93,-63.46
-0.05,-0.84,-0.54,3.71,6.77,-60.79
0.19,-0.87,-0.57,1.29,-7.22,-45.51
0.33,-0.8,-0.61,-3.04,-3.98,-23.48
0.39,-0.65,-0.54,-7.55,7.57,-7.51
0.4,-0.59,-0.43,-18.23,18.87,11.01
0.4,-0.6,-0.41,-34.12,29.17,30.41
0.32,-0.63,-0.43,-49.01,27.51,38.97
0.13,-0.65,-0.43,-52.34,28.22,45.75
0.02,-0.64,-0.45,-57.03,7.86,47.95
-0.02,-0.67,-0.53,-48.1,-33.94,44.78
-0.11,-0.72,-0.69,-24.2,-64.0,28.42
-0.41,-0.76,-0.77,-7.86,-64.0,-1.17
-0.79,-0.81,-0.71,0.28,-30.05,-28.41
-0.86,-0.83,-0.67,6.74,26.21,-36.77
-0.47,-0.78,-0.62,10.46,44.7,-47.64
-0.17,-0.78,-0.56,7.54,36.14,-46.76
0.09,-0.82,-0.51,-0.58,19.63,-32.88
0.37,-0.8,-0.51,-6.46,28.08,-1.73
0.6,-0.69,-0.49,-15.25,29.76,23.05
0.61,-0.66,-0.38,-29.74,34.79,37.94
0.47,-0.73,-0.32,-47.75,30.81,47.15
0.25,-0.78,-0.37,-59.69,16.93,54.8
0.06,-0.75,-0.44,-59.89,-12.12,55.86
-0.04,-0.73,-0.54,-43.98,-42.04,44.49
-0.2,-0.77,-0.67,-26.95,-49.11,26.72
-0.48,-0.79,-0.66,-19.65,-39.02,-2.85
-0.72,-0.79,-0.62,-5.86,-10.06,-21.86
-0.64,-0.79,-0.65,0.68,23.66,-25.51
-0.37,-0.77,-0.64,8.34,27.38,-34.14
-0.17,-0.77,-0.59,8.8,18.94,-36.69
-0.03,-0.81,-0.56,8.74,5.66,-35.94
0.07,-0.8,-0.54,2.77,-2.96,-27.59
0.17,-0.73,-0.54,1.46,0.22,-13.08
0.26,-0.65,-0.51,-4.98,11.71,3.07
0.32,-0.64,-0.46,-19.88,19.47,18.37
0.31,-0.68,-0.42,-30.03,23.53,30.69
0.23,-0.73,-0.42,-42.88,21.92,38.64
0.14,-0.72,-0.45,-50.76,10.37,44.65
0.09,-0.72,-0.49,-42.5,-6.59,46.57
0.03,-0.8,-0.62,-34.68,-28.48,38.76
-0.26,-0.83,-0.7,-33.21,-36.73,18.86
-0.56,-0.77,-0.68,-15.86,-35.38,-4.79
-0.64,-0.78,-0.74,2.01,-16.13,-27.34
-0.62,-0.83,-0.74,0.56,20.8,-38.9
-0.47,-0.78,-0.65,6.34,47.26,-42.57
-0.18,-0.71,-0.59,7.59,48.87,-39.48
0.09,-0.71,-0.55,3.44,33.75,-29.36
0.24,-0.72,-0.52,-3.0,15.89,-14.71
0.31,-0.68,-0.51,-8.59,9.66,0.82
0.36,-0.64,-0.47,-19.35,14.37,18.17
0.35,-0.67,-0.41,-32.61,18.23,29.18
0.26,-0.72,-0.38,-44.58,19.11,39.51
0.16,-0.72,-0.42,-51.19,5.38,46.14
0.06,-0.71,-0.48,-46.19,-18.88,44.2
-0.04,-0.76,-0.66,-32.13,-31.49,34.22
-0.34,-0.79,-0.74,-25.15,-41.81,3.94
-0.71,-0.76,-0.72,-6.72,-34.52,-26.32
-0.83,-0.73,-0.76,12.3,7.43,-35.53
-0.59,-0.75,-0.73,17.38,31.29,-50.21
-0.33,-0.8,-0.61,18.78,35.11,-58.86
-0.09,-0.83,-0.53,15.38,17.44,-58.24
0.14,-0.82,-0.56,10.95,20.29,-35.05
0.41,-0.71,-0.58,6.27,15.75,-12.4
0.53,-0.65,-0.44,-5.27,9.59,4.42
0.53,-0.69,-0.35,-24.26,14.27,25.96
0.47,-0.73,-0.36,-41.89,15.33,35.51
0.28,-0.74,-0.38,-55.58,23.42,45.07
0.12,-0.72,-0.4,-60.63,18.14,48.43
0.02,-0.7,-0.48,-56.83,-14.56,46.46
-0.06,-0.71,-0.61,-41.55,-46.25,36.96
-0.23,-0.75,-0.72,-23.86,-58.76,15.63
-0.59,-0.78,-0.72,-11.26,-56.08,-25.58
-0.89,-0.78,-0.69,-0.03,-15.82,-38.41
-0.74,-0.75,-0.68,9.12,17.58,-48.06
-0.4,-0.72,-0.61,12.5,11.35,-61.29
-0.16,-0.77,-0.54,10.73,-5.74,-63.62
0.05,-0.82,-0.57,8.72,-14.63,-50.2
0.28,-0.77,-0.64,9.02,-1.66,-30.21
0.43,-0.67,-0.56,2.99,6.14,-10.73
0.51,-0.68,-0.43,-8.48,17.87,11.34
0.58,-0.76,-0.41,-26.25,32.17,33.28
0.52,-0.81,-0.41,-43.93,36.78,45.11
0.27,-0.79,-0.42,-56.07,38.27,47.99
0.05,-0.74,-0.46,-63.36,22.64,48.11
-0.04,-0.72,-0.55,-58.27,-14.28,42.51
-0.09,-0.73,-0.67,-35.2,-45.82,27.22
-0.32,-0.76,-0.75,-23.0,-52.27,-3.42
-0.74,-0.76,-0.76,-4.52,-32.36,-32.43
-0.83,-0.71,-0.76,10.71,27.95,-35.19
-0.49,-0.69,-0.7,17.28,49.45,-39.72
-0.19,-0.71,-0.58,17.85,44.56,-42.58
0.03,-0.71,-0.53,17.36,31.32,-32.19
0.22,-0.7,-0.54,11.24,16.24,-15.26
0.37,-0.67,-0.53,5.64,17.51,7.18
0.46,-0.67,-0.44,-11.12,18.14,27.51
0.45,-0.74,-0.36,-27.53,16.55,35.9
0.33,-0.78,-0.36,-45.87,10.69,39.86
0.13,-0.75,-0.41,-56.28,3.81,42.59
-0.02,-0.74,-0.49,-55.02,-16.96,38.05
-0.17,-0.75,-0.61,-40.01,-46.71,14.99
-0.43,-0.79,-0.75,-21.89,-49.92,-7.26
-0.7,-0.82,-0.76,-8.76,-26.36,-35.72
-0.72,-0.78,-0.73,8.52,19.2,-46.34
-0.44,-0.72,-0.7,21.29,36.53,-52.88
-0.15,-0.76,-0.6,24.57,25.33,-57.93
0.03,-0.81,-0.55,17.63,19.83,-41.6
0.3,-0.78,-0.58,14.38,23.91,-19.89
0.5,-0.68,-0.49,6.14,9.12,-5.45
0.52,-0.68,-0.35,-10.57,8.58,13.19
0.53,-0.72,-0.34,-29.66,3.3,28.73
0.44,-0.74,-0.37,-45.81,-0.08,35.92
0.19,-0.74,-0.39,-57.57,0.58,41.76
0.06,-0.72,-0.43,-61.17,-6.76,41.69
-0.04,-0.73,-0.5,-56.52,-35.82,34.7
-0.15,-0.77,-0.63,-40.28,-57.27,21.67
-0.41,-0.8,-0.75,-22.43,-60.52,-8.93
-0.77,-0.78,-0.76,-7.35,-41.91,-42.04
-0.85,-0.73,-0.78,16.4,22.96,-51.03
-0.52,-0.7,-0.75,28.55,46.84,-62.37
-0.2,-0.77,-0.62,31.39,33.98,-64.0
0.02,-0.85,-0.58,24.42,20.68,-52.35
0.33,-0.8,-0.64,24.92,20.25,-30.08
0.51,-0.69,-0.56,17.84,6.44,-17.76
0.47,-0.69,-0.4,2.65,8.54,-3.32
0.44,-0.73,-0.36,-16.38,20.05,13.81
0.44,-0.74,-0.35,-36.89,30.09,27.59
0.36,-0.74,-0.36,-51.21,31.64,37.1
0.19,-0.74,-0.39,-59.32,26.39,40.06
0.08,-0.72,-0.45,-60.21,1.85,38.05
-0.0,-0.74,-0.52,-53.1,-34.5,31.39
-0.12,-0.78,-0.64,-30.62,-64.0,10.39
-0.43,-0.82,-0.72,-21.22,-64.0,-22.31
-0.74,-0.83,-0.67,-12.78,-31.77,-43.25
-0.66,-0.78,-0.66,1.42,11.14,-53.9
-0.38,-0.73,-0.63,12.66,7.58,-64.0
-0.21,-0.78,-0.58,12.33,-10.59,-64.0
0.03,-0.83,-0.62,10.39,0.8,-54.63
0.35,-0.76,-0.63,16.62,-8.12,-41.31
0.46,-0.67,-0.54,9.66,-8.1,-23.44
0.52,-0.67,-0.46,0.95,4.97,5.56
0.59,-0.67,-0.4,-19.51,17.24,23.29
0.51,-0.69,-0.36,-35.51,32.88,37.6
0.32,-0.7,-0.38,-51.86,39.34,42.91
0.13,-0.71,-0.39,-61.8,28.68,42.55
0.05,-0.7,-0.46,-64.0,-4.65,41.74
0.04,-0.73,-0.58,-47.51,-49.52,33.62
-0.07,-0.79,-0.71,-25.59,-64.0,18.17
-0.36,-0.84,-0.74,-14.91,-64.0,-17.01
-0.71,-0.87,-0.71,-2.99,-27.05,-34.7
-0.65,-0.83,-0.75,12.84,23.6,-46.0
-0.36,-0.76,-0.72,23.75,34.39,-54.3
-0.15,-0.78,-0.63,29.12,27.5,-59.0
0.05,-0.84,-0.56,23.95,14.85,-52.87
0.27,-0.82,-0.53,16.4,4.76,-38.91
0.42,-0.73,-0.48,6.82,1.59,-16.0
0.51,-0.65,-0.39,-5.62,3.16,3.96
0.54,-0.63,-0.32,-24.34,9.47,26.3
0.51,-0.66,-0.32,-41.33,17.25,39.55
0.36,-0.69,-0.35,-56.92,17.95,44.56
0.15,-0.7,-0.39,-64.0,16.72,46.5
0.09,-0.7,-0.45,-64.0,-7.16,48.38
0.09,-0.73,-0.55,-51.34,-38.84,45.05
0.03,-0.78,-0.68,-35.14,-57.82,33.63
-0.22,-0.83,-0.64,-32.84,-64.0,9.69
-0.52,-0.86,-0.63,-21.73,-53.22,-18.14
-0.65,-0.85,-0.73,-8.37,-19.83,-34.21
-0.53,-0.82,-0.72,-2.3,3.24,-49.17
-0.3,-0.8,-0.66,4.66,8.24,-56.17
-0.07,-0.82,-0.61,8.63,-5.95,-62.64
0.07,-0.83,-0.59,10.58,-9.48,-52.92
0.23,-0.77,-0.61,9.14,-3.73,-33.87
0.37,-0.67,-0.58,8.45,-4.86,-16.29
0.42,-0.6,-0.48,-1.88,11.54,7.96
0.47,-0.6,-0.38,-17.09,22.03,28.75
0.41,-0.62,-0.34,-27.31,24.28,34.29
0.23,-0.65,-0.38,-41.12,27.39,42.14
0.1,-0.7,-0.42,-52.42,23.03,49.03
0.09,-0.72,-0.46,-56.75,1.76,49.5
0.09,-0.73,-0.54,-44.57,-39.48,45.58
0.0,-0.75,-0.68,-21.71,-63.08,33.72
-0.23,-0.82,-0.74,-13.34,-64.0,3.89
-0.66,-0.9,-0.73,-4.14,-61.03,-28.21
-0.8,-0.91,-0.76,5.53,-0.19,-40.97
-0.56,-0.85,-0.7,12.95,36.36,-58.32
-0.3,-0.83,-0.62,16.32,34.07,-64.0
-0.06,-0.87,-0.58,12.88,19.78,-61.79
0.22,-0.86,-0.61,11.85,15.88,-39.52
0.49,-0.74,-0.58,7.26,10.68,-18.88
0.56,-0.63,-0.47,-0.61,-2.77,-4.0
0.49,-0.59,-0.38,-13.68,13.19,19.13
0.46,-0.59,-0.35,-30.25,26.51,35.99
0.31,-0.62,-0.36,-45.81,34.26,40.66
0.1,-0.65,-0.38,-56.72,38.82,45.63
0.05,-0.65,-0.43,-63.36,28.25,51.95
0.1,-0.67,-0.5,-57.62,-8.85,55.02
0.12,-0.71,-0.64,-30.18,-37.98,51.84
-0.06,-0.76,-0.73,-18.96,-52.87,29.31
-0.47,-0.85,-0.67,-14.1,-49.71,-0.17
-0.7,-0.91,-0.7,-1.19,-10.75,-22.16
-0.61,-0.9,-0.72,4.08,26.77,-34.49
-0.38,-0.85,-0.63,10.37,40.47,-47.36
-0.15,-0.83,-0.58,12.15,29.79,-54.25
0.01,-0.85,-0.58,10.57,5.31,-54.5
0.16,-0.85,-0.6,7.79,5.66,-37.5
0.35,-0.74,-0.6,6.03,5.11,-18.87
0.46,-0.66,-0.48,-2.72,2.58,-6.23
0.48,-0.64,-0.39,-16.97,13.68,16.61
0.47,-0.66,-0.38,-29.52,23.57,31.21
0.31,-0.68,-0.4,-44.85,32.99,35.99
0.12,-0.69,-0.42,-52.92,39.43,40.53
0.07,-0.68,-0.46,-55.21,30.26,47.19
0.12,-0.7,-0.51,-51.23,-11.32,47.79
0.08,-0.75,-0.62,-29.46,-57.36,39.56
-0.14,-0.79,-0.74,-14.78,-64.0,15.25
-0.58,-0.82,-0.71,-4.85,-64.0,-24.19
-0.86,-0.84,-0.69,6.06,-18.32,-40.93
-0.67,-0.79,-0.68,14.64,24.26,-57.56
-0.41,-0.75,-0.58,17.51,26.62,-64.0
-0.18,-0.81,-0.53,15.33,17.82,-64.0
0.15,-0.85,-0.55,9.68,16.4,-45.92
0.56,-0.75,-0.59,9.83,23.07,-13.11
0.73,-0.62,-0.47,2.03,4.6,6.69
0.69,-0.62,-0.36,-14.92,23.35,37.17
0.66,-0.66,-0.37,-29.23,24.39,51.09
0.4,-0.7,-0.36,-53.5,31.17,52.89
0.12,-0.73,-0.34,-64.0,32.93,60.1
0.03,-0.72,-0.42,-64.0,-0.72,59.02
0.04,-0.7,-0.63,-45.44,-41.47,51.4
-0.1,-0.73,-0.76,-25.98,-64.0,26.94
-0.52,-0.8,-0.71,-16.8,-64.0,-13.49
-0.84,-0.87,-0.71,0.9,-52.68,-33.67
-0.79,-0.88,-0.74,10.88,12.12,-47.23
-0.52,-0.81,-0.64,18.82,46.09,-61.15
-0.2,-0.79,-0.56,20.16,41.49,-64.0
0.06,-0.83,-0.56,14.52,27.65,-51.11
0.35,-0.84,-0.6,11.88,25.16,-27.03
0.58,-0.73,-0.56,3.13,16.54,-0.29
0.66,-0.65,-0.41,-8.09,20.03,23.61
0.68,-0.64,-0.35,-25.48,21.62,40.04
0.51,-0.68,-0.35,-43.95,16.33,44.99
0.19,-0.73,-0.37,-61.23,28.79,51.69
0.04,-0.74,-0.4,-64.0,16.15,54.55
-0.02,-0.72,-0.5,-59.5,-25.44,47.29
-0.09,-0.71,-0.72,-31.19,-53.69,29.45
-0.38,-0.76,-0.75,-17.25,-64.0,-9.81
-0.76,-0.83,-0.72,-0.93,-46.32,-33.35
-0.76,-0.84,-0.73,9.33,17.93,-42.67
-0.47,-0.78,-0.63,16.86,49.44,-55.97
-0.17,-0.75,-0.55,18.84,45.86,-57.41
0.11,-0.8,-0.55,15.33,30.26,-43.61
0.38,-0.81,-0.58,10.24,21.28,-21.24
0.53,-0.71,-0.51,0.8,12.02,2.21
0.59,-0.65,-0.4,-10.0,16.97,24.56
0.59,-0.66,-0.35,-26.24,15.83,38.66
0.41,-0.7,-0.36,-45.29,16.87,43.95
0.17,-0.74,-0.39,-59.65,26.52,51.46
0.06,-0.74,-0.42,-64.0,13.68,53.99
0.03,-0.75,-0.54,-49.63,-24.15,47.22
-0.11,-0.76,-0.71,-32.89,-58.37,25.78
-0.48,-0.77,-0.75,-14.82,-64.0,-13.11
-0.79,-0.8,-0.74,1.97,-41.62,-39.02
-0.73,-0.8,-0.7,13.62,17.41,-50.67
-0.43,-0.77,-0.62,17.81,34.99,-59.62
-0.13,-0.78,-0.53,18.73,28.44,-60.03
0.14,-0.82,-0.54,15.08,20.64,-43.1
0.41,-0.78,-0.58,10.94,12.61,-23.01
0.51,-0.69,-0.52,1.86,8.08,-1.6
0.57,-0.67,-0.42,-8.71,20.82,22.22
0.6,-0.7,-0.38,-25.95,24.11,37.8
0.47,-0.73,-0.38,-41.05,23.49,41.34
0.23,-0.76,-0.4,-55.71,31.77,48.53
0.1,-0.77,-0.43,-63.43,22.51,51.62
0.06,-0.76,-0.52,-55.83,-17.09,44.61
-0.06,-0.76,-0.68,-32.25,-47.34,28.76
-0.34,-0.78,-0.74,-18.0,-64.0,-6.17
-0.7,-0.82,-0.72,-2.12,-56.37,-35.76
-0.76,-0.84,-0.71,7.68,3.5,-48.48
-0.53,-0.77,-0.64,15.13,34.32,-61.08
-0.24,-0.75,-0.54,17.8,28.97,-64.0
0.02,-0.8,-0.53,14.16,22.21,-55.1
0.35,-0.8,-0.59,12.24,17.21,-29.91
0.56,-0.71,-0.52,3.99,4.82,-7.11
0.65,-0.65,-0.41,-6.88,11.04,21.42
0.68,-0.65,-0.36,-22.75,17.65,43.86
0.53,-0.69,-0.34,-42.89,21.77,50.76
0.27,-0.73,-0.35,-60.36,31.11,59.56
0.12,-0.72,-0.37,-64.0,25.85,64.0
0.11,-0.73,-0.45,-63.96,-12.27,62.44
0.05,-0.76,-0.66,-44.22,-43.42,52.34
-0.27,-0.77,-0.74,-32.05,-64.0,11.09
-0.78,-0.77,-0.73,-7.5,-64.0,-26.21
-0.94,-0.79,-0.78,13.01,-6.91,-45.11
-0.7,-0.8,-0.73,18.27,40.94,-60.72
-0.38,-0.78,-0.61,23.83,51.87,-64.0
-0.01,-0.82,-0.56,22.38,36.54,-61.12
0.33,-0.84,-0.58,17.64,31.54,-34.56
0.57,-0.76,-0.58,12.31,21.02,-11.05
0.63,-0.67,-0.44,0.75,15.46,9.81
0.63,-0.68,-0.36,-16.54,26.42,33.9
0.6,-0.73,-0.33,-38.15,24.21,45.35
0.39,-0.76,-0.31,-57.55,29.52,54.62
0.18,-0.74,-0.35,-64.0,25.42,61.33
0.1,-0.71,-0.43,-64.0,-9.64,57.42
-0.01,-0.71,-0.63,-44.16,-44.5,45.15
-0.3,-0.74,-0.73,-30.98,-64.0,10.0
-0.75,-0.78,-0.69,-9.77,-64.0,-27.7
-0.91,-0.8,-0.71,3.61,-16.5,-42.59
-0.64,-0.76,-0.69,10.96,31.5,-53.24
-0.3,-0.73,-0.58,16.74,40.0,-57.41
0.02,-0.77,-0.53,15.64,26.33,-51.32
0.31,-0.8,-0.57,11.44,21.71,-27.56
0.54,-0.74,-0.58,9.38,11.62,-7.1
0.57,-0.68,-0.47,-4.79,13.54,15.58
0.58,-0.71,-0.39,-19.07,20.96,35.86
0.54,-0.75,-0.38,-35.66,14.93,42.46
0.32,-0.76,-0.38,-52.92,22.46,52.53
0.17,-0.75,-0.41,-64.0,21.34,58.04
0.08,-0.73,-0.47,-62.79,-8.15,54.86
-0.03,-0.71,-0.65,-42.62,-39.13,41.28
-0.31,-0.72,-0.77,-24.38,-61.39,7.93
-0.72,-0.76,-0.74,-8.48,-62.73,-30.49
-0.93,-0.8,-0.74,7.93,-10.26,-47.86
-0.7,-0.78,-0.73,21.11,37.04,-61.94
-0.37,-0.75,-0.62,24.59,43.19,-64.0
-0.06,-0.8,-0.55,26.81,26.86,-64.0
0.26,-0.81,-0.58,20.12,28.4,-35.53
0.56,-0.72,-0.58,16.51,17.44,-15.66
0.6,-0.67,-0.42,2.72,6.9,2.67
0.61,-0.71,-0.35,-18.52,24.8,33.7
0.66,-0.74,-0.34,-39.48,24.11,49.85
0.5,-0.74,-0.26,-60.45,23.03,58.29
0.27,-0.75,-0.29,-64.0,8.59,64.0
0.13,-0.73,-0.42,-64.0,-16.68,64.0
0.03,-0.71,-0.62,-55.32,-37.99,53.67
-0.27,-0.69,-0.68,-40.88,-50.06,27.18
-0.61,-0.69,-0.66,-21.26,-41.64,-2.43
-0.72,-0.74,-0.7,-3.12,-10.57,-21.3
-0.57,-0.82,-0.69,0.34,29.03,-24.18
-0.24,-0.82,-0.62,4.57,41.79,-21.53
0.08,-0.76,-0.55,3.19,35.67,-10.13
0.32,-0.74,-0.5,-4.34,22.76,2.27
0.42,-0.75,-0.48,-12.43,8.45,15.98
0.42,-0.73,-0.47,-21.34,-6.03,24.78
0.32,-0.75,-0.47,-31.12,-19.19,31.82
0.17,-0.78,-0.52,-34.15,-23.51,29.79
0.02,-0.79,-0.59,-36.59,-14.14,29.17
-0.14,-0.78,-0.59,-37.74,-8.36,21.72
-0.23,-0.77,-0.62,-23.04,-5.89,11.81
-0.3,-0.78,-0.68,-12.91,-14.1,-8.11
-0.44,-0.81,-0.73,0.19,-9.55,-23.48
-0.47,-0.8,-0.73,11.02,5.08,-34.21
-0.36,-0.75,-0.68,21.52,16.5,-46.64
-0.23,-0.75,-0.61,20.59,14.78,-52.93
-0.09,-0.78,-0.57,20.02,14.09,-48.22
0.09,-0.78,-0.52,13.53,11.51,-37.82
0.31,-0.75,-0.47,1.29,15.22,-15.93
0.5,-0.67,-0.46,-6.78,21.98,11.41
0.6,-0.62,-0.37,-24.58,19.36,29.54
0.59,-0.68,-0.3,-39.34,17.85,45.06
0.45,-0.75,-0.33,-56.6,14.18,52.13
0.22,-0.75,-0.37,-64.0,10.96,60.33
0.08,-0.72,-0.45,-64.0,-7.88,62.25
0.01,-0.73,-0.58,-49.39,-44.47,50.47
-0.25,-0.75,-0.69,-35.06,-59.89,26.38
-0.68,-0.76,-0.73,-15.89,-64.0,-14.95
-0.96,-0.77,-0.76,5.89,-27.43,-40.4
-0.84,-0.79,-0.76,21.43,31.49,-52.87
-0.45,-0.79,-0.67,24.14,44.18,-60.57
-0.08,-0.82,-0.58,25.01,29.41,-57.67
0.18,-0.84,-0.57,18.72,10.29,-44.23
0.42,-0.79,-0.62,14.79,18.71,-16.06
0.54,-0.68,-0.52,3.51,7.82,-2.53
0.51,-0.69,-0.35,-14.42,16.61,19.24
0.52,-0.73,-0.34,-33.72,14.87,34.0
0.4,-0.74,-0.34,-49.64,15.64,40.24
0.18,-0.73,-0.37,-58.02,22.37,47.16
0.04,-0.71,-0.43,-63.8,16.54,48.78
0.0,-0.72,-0.49,-58.22,-8.49,47.03
-0.03,-0.74,-0.6,-39.73,-32.07,37.37
-0.21,-0.78,-0.67,-27.43,-41.17,14.66
-0.57,-0.82,-0.66,-16.95,-38.27,-15.84
-0.76,-0.81,-0.71,-1.34,-3.49,-30.24
-0.61,-0.77,-0.76,15.07,20.73,-44.12
-0.39,-0.75,-0.71,26.4,20.64,-57.52
-0.18,-0.8,-0.64,28.36,13.15,-59.71
0.03,-0.84,-0.62,25.58,7.96,-51.03
0.27,-0.78,-0.61,20.76,20.05,-29.1
0.45,-0.68,-0.5,9.72,15.84,-13.29
0.53,-0.68,-0.38,-7.7,23.98,9.66
0.59,-0.69,-0.33,-30.36,23.95,31.06
0.54,-0.71,-0.31,-48.49,17.76,38.93
0.3,-0.73,-0.34,-60.87,17.95,47.61
0.13,-0.71,-0.41,-64.0,14.34,54.07
0.03,-0.69,-0.51,-58.33,-15.73,50.41
-0.08,-0.7,-0.67,-34.96,-34.77,38.88
-0.36,-0.75,-0.75,-20.77,-58.07,5.55
-0.75,-0.82,-0.74,-3.69,-50.62,-31.41
-0.89,-0.86,-0.76,12.93,1.13,-45.72
-0.64,-0.83,-0.72,21.39,33.52,-58.97
-0.3,-0.81,-0.62,24.72,25.61,-64.0
-0.07,-0.85,-0.59,26.19,4.95,-64.0
0.19,-0.86,-0.62,24.67,4.89,-50.85
0.43,-0.79,-0.61,19.88,6.83,-35.25
0.46,-0.69,-0.5,7.91,3.95,-27.14
0.38,-0.65,-0.4,-5.0,11.61,-11.95
0.39,-0.66,-0.37,-23.39,28.32,9.6
0.44,-0.67,-0.36,-36.04,30.26,22.78
0.35,-0.67,-0.36,-47.51,28.4,32.02
0.21,-0.71,-0.37,-54.31,23.78,40.17
0.14,-0.73,-0.42,-56.18,8.4,43.49
0.07,-0.74,-0.49,-46.82,-21.41,38.45
-0.05,-0.76,-0.59,-31.03,-38.93,28.64
-0.26,-0.8,-0.66,-17.59,-45.58,1.69
-0.55,-0.84,-0.69,-8.03,-33.96,-28.01
-0.68,-0.84,-0.71,4.59,5.82,-40.23
-0.49,-0.77,-0.71,17.39,31.56,-48.94
-0.2,-0.77,-0.63,23.43,28.63,-56.07
0.02,-0.83,-0.57,22.75,12.15,-51.82
0.29,-0.84,-0.6,23.6,17.4,-28.86
0.47,-0.73,-0.56,20.31,-2.49,-24.89
0.45,-0.71,-0.43,6.18,10.78,-4.56
0.48,-0.73,-0.38,-11.66,22.51,13.4
0.51,-0.73,-0.32,-27.69,34.86,29.82
0.41,-0.74,-0.29,-47.63,35.5,37.85
0.26,-0.75,-0.3,-57.44,30.73,45.48
0.17,-0.74,-0.36,-63.57,5.21,46.37
0.13,-0.76,-0.46,-55.01,-28.56,45.82
0.05,-0.79,-0.57,-38.98,-51.48,32.19
-0.24,-0.83,-0.6,-31.79,-64.0,-1.52
-0.63,-0.86,-0.64,-15.09,-57.97,-28.27
-0.71,-0.84,-0.75,1.77,-12.55,-39.6
-0.52,-0.78,-0.74,19.06,11.27,-54.9
-0.34,-0.78,-0.65,27.74,7.12,-64.0
-0.13,-0.84,-0.61,28.77,1.53,-64.0
0.17,-0.85,-0.65,34.0,8.54,-50.78
0.45,-0.75,-0.62,29.69,3.53,-39.07
0.49,-0.68,-0.46,12.03,14.94,-18.69
0.52,-0.66,-0.38,-4.2,27.88,6.8
0.6,-0.66,-0.28,-31.4,33.02,30.41
0.63,-0.7,-0.25,-53.57,28.38,48.49
0.45,-0.72,-0.26,-64.0,23.21,57.56
0.25,-0.7,-0.29,-64.0,6.88,60.23
0.13,-0.69,-0.39,-64.0,-19.05,61.85
0.08,-0.74,-0.57,-54.79,-39.54,52.87
-0.25,-0.76,-0.66,-47.76,-57.1,21.43
-0.61,-0.78,-0.64,-28.79,-50.35,-3.46
-0.67,-0.83,-0.73,-3.64,-31.83,-26.34
-0.58,-0.86,-0.79,11.0,-1.28,-37.82
-0.39,-0.8,-0.74,24.3,21.51,-47.29
-0.13,-0.76,-0.59,30.85,18.99,-55.72
0.07,-0.83,-0.53,23.86,-5.88,-59.22
0.23,-0.88,-0.59,21.51,6.1,-34.26
0.44,-0.76,-0.61,13.04,16.8,-16.39
0.5,-0.68,-0.41,-2.0,21.06,-0.14
0.57,-0.72,-0.32,-20.96,35.61,27.98
0.66,-0.76,-0.3,-46.46,26.12,41.43
0.51,-0.79,-0.25,-64.0,27.5,52.04
0.32,-0.77,-0.28,-64.0,19.39,62.46
0.24,-0.72,-0.38,-64.0,-11.55,64.0
0.19,-0.72,-0.56,-59.52,-38.34,64.0
-0.1,-0.74,-0.67,-45.25,-64.0,32.41
-0.62,-0.73,-0.77,-17.07,-64.0,-12.67
-1.01,-0.77,-0.81,7.48,-40.11,-42.86
-0.93,-0.84,-0.77,23.09,31.14,-50.12
-0.48,-0.83,-0.68,29.51,50.15,-61.67
-0.16,-0.8,-0.58,33.53,26.26,-64.0
0.09,-0.82,-0.51,25.03,14.54,-57.13
0.49,-0.81,-0.55,24.13,8.47,-29.49
0.65,-0.72,-0.5,6.93,0.99,-9.78
0.65,-0.68,-0.35,-12.2,16.47,18.26
0.71,-0.69,-0.29,-34.87,24.34,38.92
0.61,-0.72,-0.28,-59.46,26.79,49.03
0.32,-0.73,-0.3,-64.0,30.26,56.84
0.14,-0.69,-0.35,-64.0,10.72,63.62
0.12,-0.68,-0.51,-64.0,-18.6,63.12
-0.01,-0.71,-0.71,-44.51,-43.95,45.03
-0.37,-0.74,-0.67,-34.25,-64.0,9.99
-0.73,-0.79,-0.7,-9.27,-58.73,-18.32
-0.83,-0.8,-0.79,11.41,-19.42,-36.65
-0.66,-0.78,-0.76,24.36,32.32,-46.82
-0.33,-0.76,-0.61,27.62,40.32,-52.52
0.04,-0.79,-0.54,24.68,25.74,-47.67
0.31,-0.81,-0.56,20.38,11.55,-27.72
0.49,-0.75,-0.55,10.31,10.71,-6.33
0.52,-0.7,-0.44,-2.53,15.34,12.54
0.5,-0.71,-0.37,-17.09,30.08,32.85
0.49,-0.75,-0.38,-27.06,31.18,44.4
0.36,-0.74,-0.39,-40.99,33.81,52.45
0.22,-0.74,-0.41,-50.46,39.34,62.79
0.17,-0.73,-0.42,-55.52,17.92,64.0
0.13,-0.78,-0.51,-44.13,-15.1,60.77
-0.03,-0.8,-0.62,-35.62,-30.23,44.74
-0.36,-0.84,-0.61,-37.04,-48.74,7.9
-0.72,-0.82,-0.65,-16.79,-49.22,-23.01
-0.81,-0.77,-0.8,3.45,-10.25,-38.92
-0.62,-0.76,-0.74,13.3,21.81,-50.39
-0.29,-0.79,-0.61,17.81,29.51,-56.82
-0.03,-0.83,-0.55,17.83,5.83,-63.71
0.17,-0.86,-0.54,12.04,3.13,-41.94
0.44,-0.77,-0.65,16.44,23.64,-11.28
0.6,-0.65,-0.49,0.12,15.96,0.85
0.58,-0.69,-0.31,-15.04,32.58,27.47
0.58,-0.75,-0.3,-38.87,25.37,37.87
0.43,-0.76,-0.29,-56.22,32.72,50.86
0.24,-0.74,-0.31,-64.0,22.09,57.71
0.13,-0.72,-0.39,-64.0,-14.31,57.12
0.03,-0.72,-0.55,-46.42,-34.71,52.63
-0.15,-0.78,-0.65,-38.67,-58.17,26.68
-0.56,-0.83,-0.62,-29.94,-64.0,-7.68
-0.8,-0.82,-0.72,-6.44,-43.23,-30.79
-0.72,-0.77,-0.82,15.79,0.9,-45.07
-0.52,-0.74,-0.74,24.56,27.85,-58.37
-0.25,-0.79,-0.64,31.22,26.81,-64.0
-0.01,-0.87,-0.61,30.88,3.96,-64.0
0.21,-0.85,-0.62,27.62,12.39,-42.32
0.49,-0.76,-0.62,24.82,17.76,-23.26
0.51,-0.69,-0.47,7.88,12.42,-13.76
0.45,-0.71,-0.34,-11.29,26.58,7.65
0.51,-0.73,-0.32,-31.43,35.04,27.15
0.47,-0.74,-0.3,-52.81,32.34,37.06
0.29,-0.76,-0.3,-63.57,28.65,47.15
0.18,-0.74,-0.37,-64.0,7.84,50.85
0.11,-0.72,-0.47,-56.4,-30.8,44.92
-0.06,-0.74,-0.62,-35.62,-53.54,30.3
-0.34,-0.81,-0.7,-23.84,-64.0,-2.99
-0.75,-0.85,-0.72,-7.41,-53.12,-37.09
-0.87,-0.8,-0.78,11.14,5.26,-47.75
-0.57,-0.72,-0.73,26.76,32.02,-63.89
-0.3,-0.77,-0.59,30.31,17.72,-64.0
-0.04,-0.87,-0.55,27.51,10.43,-64.0
0.34,-0.84,-0.62,30.11,14.22,-41.11
0.55,-0.72,-0.53,21.24,-6.55,-37.6
0.46,-0.72,-0.35,3.27,2.64,-15.96
0.49,-0.73,-0.37,-12.19,21.8,10.31
0.58,-0.67,-0.32,-32.08,35.82,32.69
0.52,-0.68,-0.26,-50.92,39.72,45.34
0.35,-0.72,-0.25,-63.4,34.95,52.48
0.2,-0.72,-0.31,-64.0,29.33,61.59
0.17,-0.72,-0.41,-64.0,-8.49,64.0
0.12,-0.73,-0.55,-51.47,-39.79,60.72
-0.11,-0.78,-0.61,-38.95,-64.0,32.27
-0.51,-0.81,-0.68,-22.39,-64.0,-6.66
-0.85,-0.82,-0.8,4.16,-52.12,-40.65
-0.86,-0.83,-0.83,22.47,14.25,-50.19
-0.51,-0.83,-0.73,28.57,40.37,-63.1
-0.18,-0.85,-0.6,30.13,29.37,-64.0
0.16,-0.87,-0.55,23.51,16.62,-52.12
0.5,-0.82,-0.58,21.44,14.51,-28.98
0.61,-0.73,-0.47,7.25,-6.88,-19.54
0.54,-0.73,-0.34,-8.13,15.1,6.69
0.6,-0.73,-0.35,-27.88,25.98,29.93
0.62,-0.73,-0.27,-50.47,28.18,44.03
0.43,-0.77,-0.25,-64.0,28.04,52.25
0.23,-0.72,-0.32,-64.0,7.29,56.71
0.12,-0.69,-0.44,-64.0,-20.51,58.41
0.01,-0.69,-0.63,-48.72,-46.9,42.11
-0.29,-0.76,-0.68,-34.46,-64.0,13.45
-0.68,-0.8,-0.74,-11.67,-59.8,-23.8
-0.87,-0.8,-0.8,7.77,-8.96,-35.25
-0.66,-0.78,-0.76,21.45,37.4,-45.5
-0.33,-0.76,-0.64,23.57,37.72,-55.35
-0.08,-0.78,-0.55,24.6,21.27,-58.07
0.17,-0.82,-0.53,22.1,8.82,-43.19
0.43,-0.79,-0.56,15.92,6.34,-24.19
0.53,-0.73,-0.47,5.72,1.93,-7.62
0.54,-0.73,-0.36,-12.88,19.36,18.53
0.61,-0.75,-0.33,-31.48,31.54,38.41
0.54,-0.76,-0.28,-54.16,32.86,45.68
0.33,-0.78,-0.27,-64.0,32.85,55.51
0.18,-0.76,-0.35,-64.0,5.16,57.08
0.11,-0.73,-0.51,-63.55,-30.19,54.29
-0.01,-0.74,-0.67,-44.64,-55.06,39.58
-0.4,-0.76,-0.73,-29.68,-64.0,-1.73
-0.8,-0.77,-0.76,-3.06,-64.0,-34.29
-0.92,-0.77,-0.82,17.27,9.76,-42.5
-0.65,-0.77,-0.75,26.01,45.64,-54.23
-0.31,-0.77,-0.6,27.88,45.75,-62.22
0.0,-0.82,-0.51,25.01,27.19,-53.15
0.37,-0.82,-0.53,17.3,21.63,-28.18
0.61,-0.74,-0.51,10.34,6.7,-10.31
0.61,-0.71,-0.37,-7.65,6.46,9.45
0.59,-0.75,-0.31,-28.77,17.47,30.88
0.54,-0.78,-0.3,-49.45,19.9,40.21
0.33,-0.78,-0.3,-64.0,26.61,48.08
0.18,-0.74,-0.36,-64.0,17.62,55.55
0.12,-0.7,-0.49,-64.0,-20.36,52.66
-0.01,-0.69,-0.67,-42.49,-45.61,38.57
-0.32,-0.74,-0.76,-23.74,-60.27,7.3
-0.75,-0.78,-0.76,-3.74,-59.87,-36.99
-0.94,-0.77,-0.8,18.62,10.13,-42.04
-0.62,-0.74,-0.74,28.59,48.57,-53.2
-0.21,-0.76,-0.55,27.64,40.69,-60.51
0.07,-0.82,-0.46,20.28,20.08,-49.46
0.43,-0.83,-0.51,11.39,27.61,-14.82
0.73,-0.73,-0.51,4.25,17.91,7.42
0.74,-0.7,-0.32,-17.46,18.27,28.4
0.69,-0.79,-0.25,-35.48,21.26,44.59
0.55,-0.84,-0.26,-60.8,19.94,52.12
0.33,-0.81,-0.3,-64.0,22.78,60.45
0.14,-0.74,-0.39,-64.0,-7.02,58.68
-0.02,-0.69,-0.59,-54.18,-33.24,50.13
-0.25,-0.71,-0.75,-37.47,-55.29,19.32
-0.71,-0.74,-0.71,-18.26,-64.0,-22.38
-0.9,-0.76,-0.78,5.6,-11.45,-32.2
-0.6,-0.78,-0.75,14.41,37.07,-37.54
-0.24,-0.75,-0.6,20.38,45.75,-40.32
0.07,-0.74,-0.51,20.01,33.96,-36.3
0.29,-0.78,-0.48,11.41,14.5,-22.88
0.46,-0.81,-0.47,-1.28,13.56,3.27
0.59,-0.78,-0.46,-11.5,16.19,23.3
0.59,-0.77,-0.37,-31.82,6.74,33.16
0.46,-0.81,-0.32,-49.62,4.58,44.58
0.28,-0.78,-0.38,-61.11,-6.08,46.96
0.07,-0.71,-0.51,-57.02,-28.42,39.41
-0.18,-0.7,-0.67,-38.88,-41.8,23.84
-0.48,-0.73,-0.77,-18.68,-47.39,-9.89
-0.79,-0.74,-0.77,2.56,-23.17,-35.06
-0.76,-0.75,-0.76,17.73,30.13,-43.71
-0.41,-0.74,-0.68,25.87,44.5,-50.04
-0.08,-0.76,-0.55,28.56,35.47,-50.42
0.15,-0.82,-0.47,18.97,19.18,-39.29
0.46,-0.83,-0.49,9.88,22.92,-8.55
0.68,-0.75,-0.47,-1.58,11.83,11.0
0.68,-0.73,-0.35,-18.68,18.35,29.94
0.58,-0.79,-0.28,-42.74,18.32,42.05
0.38,-0.82,-0.28,-64.0,18.99,47.99
0.18,-0.76,-0.34,-64.0,3.48,50.05
0.03,-0.69,-0.49,-60.29,-25.25,45.99
-0.11,-0.7,-0.66,-42.26,-44.51,30.65
-0.46,-0.72,-0.72,-24.71,-57.05,-6.55
-0.81,-0.72,-0.74,0.81,-36.79,-31.28
-0.78,-0.72,-0.77,15.63,19.02,-37.85
-0.44,-0.73,-0.66,25.01,42.03,-42.92
-0.06,-0.75,-0.56,25.29,37.25,-43.77
0.2,-0.81,-0.44,16.08,15.74,-33.67
0.45,-0.85,-0.47,2.81,13.1,-4.67
0.66,-0.8,-0.48,-6.45,5.23,17.51
0.67,-0.78,-0.37,-25.99,9.35,32.6
0.57,-0.87,-0.3,-47.93,7.66,42.71
0.36,-0.85,-0.33,-64.0,1.38,46.23
0.1,-0.76,-0.45,-64.0,-25.85,39.17
-0.2,-0.66,-0.65,-47.38,-64.0,18.82
-0.48,-0.66,-0.89,-4.85,-64.0,-9.91
-0.82,-0.75,-0.86,7.86,-23.88,-42.01
-0.89,-0.8,-0.68,17.38,47.7,-50.37
-0.43,-0.74,-0.62,24.42,59.98,-53.02
-0.01,-0.74,-0.53,25.68,25.57,-57.27
0.18,-0.81,-0.49,17.46,17.42,-34.81
0.48,-0.81,-0.54,14.66,14.95,-12.69
0.6,-0.76,-0.45,3.69,6.1,-4.92
0.53,-0.76,-0.33,-13.09,11.43,10.71
0.5,-0.79,-0.32,-31.55,19.79,28.69
0.45,-0.81,-0.32,-52.95,18.99,35.04
0.25,-0.8,-0.35,-64.0,13.64,38.52
0.06,-0.75,-0.45,-64.0,-10.04,34.35
-0.11,-0.68,-0.61,-46.97,-52.37,16.63
-0.38,-0.66,-0.79,-7.33,-64.0,-15.73
-0.7,-0.76,-0.85,12.99,-36.15,-41.09
-0.82,-0.81,-0.7,19.62,19.58,-59.07
-0.57,-0.76,-0.59,29.48,33.97,-64.0
-0.18,-0.77,-0.52,27.54,25.46,-63.5
0.33,-0.83,-0.51,23.85,38.17,-26.5
0.72,-0.77,-0.44,16.5,8.47,-15.79
0.7,-0.74,-0.28,-1.17,-6.34,2.92
0.67,-0.79,-0.3,-18.64,17.55,36.26
0.76,-0.79,-0.3,-46.94,18.22,48.66
0.57,-0.79,-0.21,-64.0,17.96,56.57
0.29,-0.76,-0.31,-64.0,-1.03,59.98
0.12,-0.67,-0.56,-64.0,-33.18,51.57
-0.17,-0.62,-0.77,-39.96,-55.38,27.58
-0.63,-0.68,-0.81,-11.12,-63.83,-15.22
-1.02,-0.77,-0.78,7.57,-19.29,-37.88
-0.84,-0.81,-0.73,19.66,41.07,-45.42
-0.35,-0.78,-0.61,26.05,33.01,-62.34
-0.1,-0.81,-0.46,22.4,-0.07,-64.0
0.19,-0.87,-0.51,20.2,12.08,-36.43
0.55,-0.8,-0.57,16.56,2.79,-18.13
0.64,-0.75,-0.43,0.1,6.68,3.39
0.69,-0.78,-0.34,-15.21,23.72,31.19
0.81,-0.78,-0.27,-37.14,24.29,54.25
0.75,-0.8,-0.22,-64.0,22.52,64.0
0.5,-0.78,-0.27,-64.0,17.93,64.0
0.23,-0.69,-0.36,-64.0,-9.46,64.0
0.03,-0.61,-0.61,-64.0,-39.48,63.63
-0.32,-0.59,-0.85,-42.61,-64.0,30.51
-0.91,-0.62,-0.87,-6.07,-64.0,-24.4
-1.24,-0.73,-0.78,12.83,-8.27,-36.35
-0.79,-0.85,-0.72,20.2,57.23,-39.2
-0.28,-0.82,-0.63,26.04,41.77,-54.49
-0.05,-0.8,-0.51,19.38,15.85,-50.75
0.25,-0.84,-0.48,12.76,19.37,-23.15
0.64,-0.79,-0.52,4.34,19.57,4.48
0.73,-0.74,-0.4,-15.75,21.21,29.54
0.75,-0.76,-0.27,-37.4,29.4,54.71
0.77,-0.78,-0.27,-59.98,24.75,64.0
0.56,-0.77,-0.31,-64.0,16.03,64.0
0.21,-0.73,-0.39,-64.0,-9.25,64.0
-0.17,-0.63,-0.67,-64.0,-36.99,54.38
-0.54,-0.56,-0.93,-32.74,-60.22,15.68
-0.98,-0.59,-0.9,4.46,-64.0,-24.36
-1.17,-0.73,-0.77,17.54,-2.63,-38.93
-0.87,-0.84,-0.72,21.74,43.25,-45.93
-0.36,-0.79,-0.6,24.61,41.73,-47.92
-0.03,-0.76,-0.5,22.34,34.35,-38.16
0.31,-0.79,-0.46,12.5,29.11,-17.73
0.57,-0.79,-0.42,0.66,21.81,4.9
0.64,-0.77,-0.37,-15.87,18.89,22.78
0.61,-0.79,-0.35,-33.34,37.14,50.94
0.62,-0.8,-0.38,-52.2,33.78,62.89
0.49,-0.78,-0.36,-64.0,28.59,64.0
0.25,-0.76,-0.41,-64.0,11.51,64.0
0.01,-0.68,-0.57,-64.0,-36.29,57.5
-0.29,-0.61,-0.8,-39.07,-58.33,43.47
-0.64,-0.65,-0.95,-13.2,-64.0,-2.03
-1.11,-0.7,-0.85,7.15,-34.05,-30.56
-1.08,-0.71,-0.75,19.7,41.83,-36.76
-0.57,-0.66,-0.63,23.22,57.63,-44.2
-0.14,-0.72,-0.47,18.65,39.79,-41.91
0.16,-0.82,-0.47,7.59,24.04,-19.01
0.49,-0.8,-0.53,1.79,21.96,11.8
0.6,-0.71,-0.5,-7.29,10.29,24.18
0.54,-0.75,-0.41,-26.05,23.71,43.81
0.51,-0.84,-0.41,-47.08,29.29,56.43
0.44,-0.86,-0.39,-64.0,26.6,63.3
0.28,-0.82,-0.42,-64.0,16.36,64.0
0.13,-0.7,-0.57,-64.0,-15.76,64.0
-0.05,-0.61,-0.81,-58.95,-34.78,53.45
-0.42,-0.62,-0.91,-37.93,-52.59,19.53
-0.86,-0.68,-0.83,-21.58,-45.58,-18.56
-1.05,-0.74,-0.79,-6.99,11.45,-33.58
-0.78,-0.72,-0.79,0.28,55.63,-41.05
-0.38,-0.65,-0.67,4.92,55.72,-49.62
-0.13,-0.66,-0.51,5.87,28.75,-55.9
0.07,-0.74,-0.51,1.55,5.14,-42.27
0.32,-0.77,-0.62,5.05,9.08,-20.6
0.48,-0.7,-0.58,-1.46,6.18,-9.21
0.46,-0.69,-0.42,-15.27,15.29,9.29
0.5,-0.77,-0.38,-30.94,26.54,30.14
0.54,-0.79,-0.4,-48.65,26.94,41.97
0.42,-0.78,-0.4,-64.0,26.71,51.44
0.25,-0.73,-0.47,-64.0,8.92,55.57
0.05,-0.64,-0.61,-64.0,-27.51,47.85
-0.21,-0.57,-0.84,-36.02,-55.17,31.37
-0.51,-0.57,-0.95,-13.66,-64.0,-4.18
-0.93,-0.6,-0.88,4.02,-40.52,-38.83
-0.97,-0.6,-0.83,15.03,29.89,-46.92
-0.63,-0.52,-0.78,27.12,64.0,-57.15
-0.3,-0.5,-0.65,34.69,62.6,-64.0
-0.01,-0.62,-0.56,26.69,46.61,-50.32
0.31,-0.72,-0.55,19.63,35.81,-19.22
0.58,-0.66,-0.53,9.06,21.84,6.27
0.62,-0.62,-0.41,-3.53,11.71,24.36
0.57,-0.66,-0.35,-15.75,18.32,42.94
0.52,-0.72,-0.39,-35.43,17.53,55.06
0.32,-0.77,-0.38,-59.31,17.07,59.54
0.11,-0.74,-0.42,-64.0,-7.76,57.48
-0.01,-0.68,-0.63,-51.41,-29.96,56.22
-0.2,-0.65,-0.88,-29.46,-64.0,25.25
-0.71,-0.62,-0.89,-1.72,-64.0,-17.92
-1.05,-0.67,-0.86,22.76,-39.02,-42.78
-0.95,-0.75,-0.82,31.37,26.76,-56.78
-0.63,-0.74,-0.67,39.43,47.0,-64.0
-0.26,-0.73,-0.54,41.96,35.66,-64.0
0.09,-0.8,-0.48,34.1,20.9,-53.25
0.45,-0.8,-0.58,40.88,14.97,-31.57
0.55,-0.68,-0.56,34.26,1.14,-22.79
0.43,-0.68,-0.41,19.46,14.85,-5.41
0.45,-0.74,-0.36,0.62,29.13,21.29
0.55,-0.75,-0.32,-20.79,22.14,32.9
0.46,-0.77,-0.26,-44.15,11.82,43.7
0.27,-0.77,-0.28,-60.67,-1.85,51.02
0.1,-0.7,-0.39,-64.0,-31.54,50.64
-0.03,-0.65,-0.57,-50.52,-50.34,47.99
-0.25,-0.66,-0.71,-34.73,-64.0,26.68
-0.58,-0.72,-0.7,-21.81,-64.0,0.57
-0.89,-0.75,-0.73,1.44,-59.01,-26.28
-0.88,-0.75,-0.76,15.79,-5.89,-37.23
-0.64,-0.74,-0.72,26.93,36.71,-48.08
-0.37,-0.73,-0.63,35.04,41.46,-52.58
-0.1,-0.76,-0.56,38.76,17.53,-53.78
0.09,-0.81,-0.53,31.02,-2.94,-37.37
0.29,-0.81,-0.57,33.31,-1.48,-21.45
0.4,-0.75,-0.53,26.15,-5.24,-13.66
0.35,-0.76,-0.4,11.11,3.74,-4.85
0.33,-0.83,-0.34,-8.4,13.93,12.46
0.4,-0.84,-0.35,-23.86,22.89,30.19
0.43,-0.82,-0.37,-40.91,24.94,45.6
0.34,-0.8,-0.34,-52.52,18.91,54.88
0.21,-0.77,-0.37,-64.0,-5.85,56.23
0.07,-0.74,-0.44,-58.95,-40.18,52.61
-0.09,-0.72,-0.64,-41.27,-64.0,44.43
-0.39,-0.7,-0.75,-23.95,-64.0,7.43
-0.82,-0.7,-0.74,1.81,-64.0,-24.27
-1.0,-0.76,-0.73,12.93,-4.71,-39.27
-0.77,-0.79,-0.69,22.39,54.82,-48.93
-0.4,-0.75,-0.61,30.04,63.48,-56.3
-0.09,-0.77,-0.53,29.43,39.86,-53.34
0.14,-0.83,-0.48,24.69,14.69,-37.15
0.37,-0.84,-0.49,21.92,10.19,-15.11
0.47,-0.78,-0.45,13.24,1.61,-6.11
0.38,-0.79,-0.34,-7.03,5.87,6.98
0.33,-0.84,-0.31,-26.96,23.16,28.71
0.36,-0.82,-0.32,-44.33,25.16,38.24
0.3,-0.79,-0.3,-59.18,18.96,47.94
0.16,-0.76,-0.33,-64.0,0.03,50.84
0.05,-0.72,-0.41,-64.0,-27.79,47.76
-0.06,-0.7,-0.55,-54.64,-49.27,40.93
-0.29,-0.71,-0.66,-41.01,-58.93,23.03
-0.55,-0.72,-0.66,-25.6,-53.08,2.21
-0.69,-0.75,-0.66,-9.19,-22.69,-14.47
-0.62,-0.79,-0.7,0.94,21.12,-19.21
-0.38,-0.78,-0.66,10.07,43.41,-25.4
-0.19,-0.76,-0.58,15.02,40.89,-26.47
-0.03,-0.78,-0.54,14.68,23.77,-23.07
0.1,-0.81,-0.51,13.11,6.97,-15.33
0.15,-0.81,-0.48,5.92,-3.15,-9.04
0.15,-0.79,-0.45,-2.59,-4.26,0.39
0.16,-0.78,-0.42,-12.73,4.67,11.2
0.19,-0.77,-0.4,-21.33,10.08,17.16
0.17,-0.77,-0.37,-34.04,10.3,23.29
0.11,-0.8,-0.37,-43.45,9.65,29.85
0.04,-0.79,-0.41,-49.94,1.43,31.45
-0.02,-0.77,-0.45,-50.1,-13.97,31.19
-0.06,-0.78,-0.51,-42.73,-34.71,27.34
-0.12,-0.8,-0.59,-34.59,-41.91,20.78
-0.28,-0.79,-0.64,-25.98,-32.56,5.42
-0.47,-0.76,-0.61,-17.81,-19.98,-13.12
-0.51,-0.76,-0.64,-3.0,6.19,-18.28
-0.38,-0.78,-0.68,2.71,23.28,-21.25
-0.23,-0.78,-0.63,5.13,26.01,-23.54
-0.13,-0.78,-0.56,3.88,22.63,-21.95
-0.03,-0.78,-0.53,2.7,12.15,-20.68
0.02,-0.75,-0.51,1.9,-2.11,-20.14
0.0,-0.75,-0.51,-2.5,-10.2,-19.33
-0.03,-0.75,-0.52,-4.92,-10.45,-15.39
-0.04,-0.74,-0.52,-6.83,-11.27,-13.67
-0.06,-0.73,-0.52,-9.26,-7.91,-11.14
-0.06,-0.74,-0.51,-9.49,-3.16,-8.92
-0.05,-0.75,-0.49,-11.07,3.55,-5.21
0.0,-0.76,-0.46,-14.95,10.56,2.1
0.08,-0.77,-0.44,-20.61,14.12,10.56
0.14,-0.78,-0.43,-22.48,18.98,20.52
0.19,-0.78,-0.43,-28.38,21.6,30.11
0.2,-0.79,-0.44,-34.38,18.22,40.52
0.17,-0.78,-0.45,-36.75,15.55,47.56
0.13,-0.76,-0.45,-41.48,-7.42,47.02
-0.01,-0.78,-0.5,-35.46,-36.93,38.73
-0.24,-0.79,-0.66,-18.3,-58.88,16.05
-0.67,-0.76,-0.77,-0.74,-59.91,-23.16
-1.04,-0.77,-0.71,16.26,-6.21,-49.68
-0.94,-0.8,-0.62,22.55,53.64,-63.42
-0.54,-0.83,-0.53,23.32,58.71,-64.0
-0.18,-0.84,-0.49,22.75,26.96,-64.0
0.09,-0.83,-0.5,21.81,16.93,-48.47
0.44,-0.76,-0.54,23.2,17.1,-22.22
0.53,-0.68,-0.41,6.82,-6.78,-12.07
0.45,-0.7,-0.31,-9.24,16.48,20.65
0.58,-0.7,-0.34,-27.43,27.73,51.57
0.61,-0.68,-0.25,-52.2,22.65,58.31
0.35,-0.69,-0.21,-64.0,21.3,64.0
0.16,-0.66,-0.28,-64.0,12.5,64.0
0.06,-0.64,-0.47,-64.0,-8.88,64.0
-0.23,-0.63,-0.62,-64.0,-54.5,51.22
-0.72,-0.61,-0.77,-26.81,-64.0,18.8
-1.04,-0.67,-0.83,1.86,-64.0,-19.61
-1.12,-0.82,-0.73,16.79,-4.84,-37.15
-0.85,-0.88,-0.69,25.56,48.16,-48.18
-0.41,-0.79,-0.64,36.76,52.95,-57.1
-0.09,-0.78,-0.56,35.27,29.77,-55.02
0.17,-0.89,-0.5,22.99,10.28,-33.1
